Subject,Block,CategoryNumber,ITI,Trial,CorrAns,ACC,RESP,RT,Typicality,Familiarity,Item,Category,Prime,cond_TrueFalse,TF,MoCA_dev,old_group,all_groups,group,Typi,Typi_cen,Fam_tipi_cen,Fam_tipi,CD_Log_cen,CD_Log,AoA_cen,AoA,Imag_cen,Imag,Idade,escolaridade,Vocabulary,CCT,Sex
11,3,2,3000,1,2,1,2,1341,7,5,Peach,Fruit,FRUTO,aTRUE,-0.5,0,healthy,-0.5,Old,7,1.237250811,0.835899775,5,-0.047323148,2.181843588,-0.793221164,2.19,1.04215398,6.276,66,17,14,0.84,female
11,3,1,2500,2,1,1,1,3345,6.916666667,3.75862069,Eagle,Birds,MAMÍFERO,FALSE,0.5,0,healthy,-0.5,Old,6.916666667,1.175690826,-0.236069083,3.76,0.231731107,2.460897843,-0.042385864,2.95,0.1233303,5.852,66,17,14,0.84,female
11,3,3,3000,3,2,1,2,1353,6.916666667,6.413793103,Jacket,Clothing,VESTUÁRIO,aTRUE,-0.5,0,healthy,-0.5,Old,6.916666667,1.175690826,2.054832106,6.41,0.987526863,3.216693599,-0.882135871,2.1,0.032314746,5.81,66,17,14,0.84,female
11,3,1,3000,4,1,1,1,1371,6.25,3.620689655,Oven mitts,Kitchent Utensil,MAMÍFERO,FALSE,0.5,0,healthy,-0.5,Old,6.25,0.683210942,-0.357097825,3.62,0.294579731,2.523746467,-2.956812359,NA,-12.55817012,NA,66,17,14,0.84,female
11,3,1,2000,5,2,1,2,3051,4.833333333,3.482758621,Squirrel,Mammals,MAMÍFERO,aTRUE,-0.5,0,healthy,-0.5,Old,4.833333333,-0.36330881,-0.478126567,3.48,0.123015782,2.3521825180000002,0.095925902,3.09,1.154839904,6.328,66,17,14,0.84,female
11,3,2,2000,7,1,1,1,1905,5.375,3,Goose,Birds,FRUTO,FALSE,0.5,0,healthy,-0.5,Old,5.375,0.036831096,-0.893082254,3,0.105287015,2.334453751,0.105805314,3.1,0.628249917,6.085,66,17,14,0.84,female
11,3,2,1500,8,2,1,2,1041,5.75,3.413793103,Coconut,Fruit,FRUTO,aTRUE,-0.5,0,healthy,-0.5,Old,5.75,0.31385103,-0.538640938,3.41,0.213313033,2.442479769,-0.803100576,2.18,-0.622130422,5.508,66,17,14,0.84,female
11,3,4,2000,10,1,1,1,2026,3.166666667,2.931034483,Slingshot,Weapon,VEÍCULO,FALSE,0.5,0,healthy,-0.5,Old,3.166666667,-1.594508517,-0.953596625,2.93,0.239180594,2.46834733,-2.956812359,NA,-12.55817012,NA,66,17,14,0.84,female
11,3,4,2000,11,2,1,2,1619,6.666666667,4.931034483,Taxi,Vehicles,VEÍCULO,aTRUE,-0.5,0,healthy,-0.5,Old,6.666666667,0.99101087,0.775385404,4.93,0.845649704,3.074816441,0.056408255,3.05,1.154839904,6.328,66,17,14,0.84,female
11,3,2,1500,12,2,1,2,1059,6.875,5.137931034,Strawberry,Fruit,FRUTO,aTRUE,-0.5,0,healthy,-0.5,Old,6.875,1.144910833,0.956928518,5.14,0.06968634,2.298853076,-1.178518226,1.8,0.87745917,6.2,66,17,14,0.84,female
11,3,2,2000,13,1,1,1,1347,6.75,6.379310345,Spoon,Kitchent Utensil,FRUTO,FALSE,0.5,0,healthy,-0.5,Old,6.75,1.052570855,2.028897376,6.38,0.490992567,2.720159303,-1.455141758,1.52,-0.017527104,5.787,66,17,14,0.84,female
11,3,3,1500,14,1,1,1,1255,6.666666667,6.517241379,Plate,Kitchent Utensil,VESTUÁRIO,FALSE,0.5,0,healthy,-0.5,Old,6.666666667,0.99101087,2.149926118,6.52,0.776013776,3.005180513,-1.356347639,1.62,0.665089545,6.102,66,17,14,0.84,female
11,3,1,3000,15,2,1,2,1427,6.291666667,5.137931034,Cow,Mammals,MAMÍFERO,aTRUE,-0.5,0,healthy,-0.5,Old,6.291666667,0.713990935,0.956928518,5.14,0.817718455,3.046885191,-1.277312345,1.7,1.0139825,6.263,66,17,14,0.84,female
11,3,4,2500,16,2,1,2,1625,6.125,5.931034483,Train,Vehicles,VEÍCULO,aTRUE,-0.5,0,healthy,-0.5,Old,6.125,0.590870964,1.639876419,5.93,0.81966335,3.048830087,-1.30695058,1.67,1.471227303,6.474,66,17,14,0.84,female
11,3,3,2500,17,1,1,1,1157,5.833333333,2.275862069,Celery,Vegetable,VESTUÁRIO,FALSE,0.5,0,healthy,-0.5,Old,5.833333333,0.375411015,-1.515515785,2.28,-0.52159656,1.707570176,2.457105334,5.48,-2.418604081,4.679,66,17,14,0.84,female
11,3,3,2500,18,1,1,1,2343,6.291666667,2.931034483,Cannon,Weapon,VESTUÁRIO,FALSE,0.5,0,healthy,-0.5,Old,6.291666667,0.713990935,-0.953596625,2.93,0.278689136,2.507855872,0.99495238,4,0.227348075,5.9,66,17,14,0.84,female
11,3,2,2500,19,2,1,2,905,6.541666667,5.068965517,Pineapple,Fruit,FRUTO,aTRUE,-0.5,0,healthy,-0.5,Old,6.541666667,0.898670891,0.896414147,5.07,-0.342676011,1.886490725,-0.55611528,2.43,-0.871339675,5.393,66,17,14,0.84,female
11,3,4,2000,20,1,1,1,1784,5.681818182,3.551724138,Zucchini,Vegetable,VEÍCULO,FALSE,0.5,0,healthy,-0.5,Old,5.681818182,0.263483769,-0.417612196,3.55,-2.229166736,NA,-2.956812359,NA,-12.55817012,NA,66,17,14,0.84,female
11,3,1,3000,21,1,1,1,1372,6.208333333,3.655172414,Bomb,Weapon,MAMÍFERO,FALSE,0.5,0,healthy,-0.5,Old,6.208333333,0.652430949,-0.322518184,3.66,0.981953805,3.211120541,-2.956812359,NA,0.6975951,6.117,66,17,14,0.84,female
11,3,1,1500,22,2,1,2,1850,5.833333333,3.448275862,Leopard,Mammals,MAMÍFERO,aTRUE,-0.5,0,healthy,-0.5,Old,5.833333333,0.375411015,-0.504061297,3.45,-0.121956767,2.10720997,0.392308258,3.39,1.453891007,6.466,66,17,14,0.84,female
11,3,2,2000,23,2,1,2,1239,4.916666667,5.103448276,Lemon,Fruit,FRUTO,aTRUE,-0.5,0,healthy,-0.5,Old,4.916666667,-0.301748824,0.922348877,5.1,0.322283262,2.551449998,-1.079724108,1.9,0.920799909,6.22,66,17,14,0.84,female
11,3,3,1500,25,2,1,2,2050,4.666666667,6.034482759,Boots,Clothing,VESTUÁRIO,aTRUE,-0.5,0,healthy,-0.5,Old,4.666666667,-0.48642878,1.726325521,6.03,0.747641601,2.976808337,-1.326709404,1.65,-0.656803014,5.492,66,17,14,0.84,female
11,3,1,2000,26,1,1,1,1286,5.666666667,3.137931034,Asparagus,Vegetable,MAMÍFERO,FALSE,0.5,0,healthy,-0.5,Old,5.666666667,0.252291045,-0.772053512,3.14,-0.886744055,1.342422681,2.358311215,5.38,-1.796664467,4.966,66,17,14,0.84,female
11,3,4,1500,27,2,1,2,1440,5.333333333,3.344827586,Tractor,Vehicles,VEÍCULO,aTRUE,-0.5,0,healthy,-0.5,Old,5.333333333,0.006051103,-0.599155309,3.34,-0.168468896,2.06069784,0.263875904,3.26,0.203510668,5.889,66,17,14,0.84,female
11,3,2,2000,29,1,1,1,1521,5.166666667,2.827586207,Spear,Weapon,FRUTO,FALSE,0.5,0,healthy,-0.5,Old,5.166666667,-0.117068868,-1.040045727,2.83,0.479254164,2.7084209,1.380249442,4.39,-1.547455214,5.081,66,17,14,0.84,female
11,3,3,3000,30,2,1,2,1378,4.416666667,4.965517241,Scarf,Clothing,VESTUÁRIO,aTRUE,-0.5,0,healthy,-0.5,Old,4.416666667,-0.671108736,0.809965045,4.97,-0.125363015,2.103803721,-0.170818218,2.82,-0.169219693,5.717,66,17,14,0.84,female
11,3,4,2500,31,1,1,1,2872,5.708333333,2.517241379,Whisk,Kitchent Utensil,VEÍCULO,FALSE,0.5,0,healthy,-0.5,Old,5.708333333,0.283071037,-1.308037941,2.52,-0.009058648,2.220108088,0.323152375,3.32,0.112495115,5.847,66,17,14,0.84,female
11,3,3,2000,32,2,1,2,1498,4.875,4.517241379,Leotards,Clothing,VESTUÁRIO,aTRUE,-0.5,0,healthy,-0.5,Old,4.875,-0.332528817,0.420944088,4.52,-0.29974781,1.929418926,-2.956812359,NA,-12.55817012,NA,66,17,14,0.84,female
11,3,1,1500,33,1,1,1,1400,4.75,4.689655172,Bean,Vegetable,MAMÍFERO,FALSE,0.5,0,healthy,-0.5,Old,4.75,-0.424868795,0.567907561,4.69,0.239180594,2.46834733,-0.28937116,2.7,-0.656803014,5.492,66,17,14,0.84,female
11,3,1,3000,34,1,1,1,1704,4.125,2.724137931,Pepper spray,Weapon,MAMÍFERO,FALSE,0.5,0,healthy,-0.5,Old,4.125,-0.886568685,-1.135139738,2.72,-2.229166736,NA,-2.956812359,NA,-12.55817012,NA,66,17,14,0.84,female
11,3,4,1500,36,1,1,1,1187,4.833333333,3,Ostrich,Birds,VEÍCULO,FALSE,0.5,0,healthy,-0.5,Old,4.833333333,-0.36330881,-0.893082254,3,-0.451015486,1.77815125,0.382428846,3.38,1.280528049,6.386,66,17,14,0.84,female
11,3,1,3000,37,2,1,2,1811,5.608695652,2.724137931,Cougar,Mammals,MAMÍFERO,aTRUE,-0.5,0,healthy,-0.5,Old,5.608695652,0.209466707,-1.135139738,2.72,-0.41625338,1.812913357,-2.956812359,NA,-12.55817012,NA,66,17,14,0.84,female
11,3,1,2500,38,2,1,2,1813,5.458333333,3.482758621,Camel,Mammals,MAMÍFERO,aTRUE,-0.5,0,healthy,-0.5,Old,5.458333333,0.098391081,-0.478126567,3.48,0.06529949,2.294466226,-0.279491748,2.71,0.667256582,6.103,66,17,14,0.84,female
11,3,3,2000,39,2,1,2,1246,3.5,3.068965517,Shawl,Clothing,VESTUÁRIO,aTRUE,-0.5,0,healthy,-0.5,Old,3.5,-1.348268576,-0.832567883,3.07,-0.710652796,1.51851394,-2.956812359,NA,-12.55817012,NA,66,17,14,0.84,female
11,3,4,2500,40,1,1,1,1876,6.375,5.344827586,Mixing bowl,Kitchent Utensil,VEÍCULO,FALSE,0.5,0,healthy,-0.5,Old,6.375,0.77555092,1.12982672,5.34,0.109289757,2.338456494,-0.66478881,2.32,1.295697307,6.393,66,17,14,0.84,female
11,3,4,2500,41,1,1,1,1369,4.166666667,4.172413793,Parsley,Vegetable,VEÍCULO,FALSE,0.5,0,healthy,-0.5,Old,4.166666667,-0.855788692,0.118372233,4.17,0.249399759,2.478566496,0.827002379,3.83,0.181840298,5.879,66,17,14,0.84,female
11,3,2,2500,42,2,1,2,1173,6.291666667,3.793103448,Raspberry,Fruit,FRUTO,aTRUE,-0.5,0,healthy,-0.5,Old,6.291666667,0.713990935,-0.210134352,3.79,-0.265378909,1.963787827,-2.956812359,NA,-12.55817012,NA,66,17,14,0.84,female
11,3,3,1500,43,1,1,1,1102,5.083333333,3.413793103,Funnel,Kitchent Utensil,VESTUÁRIO,FALSE,0.5,0,healthy,-0.5,Old,5.083333333,-0.178628853,-0.538640938,3.41,-0.566408904,1.662757832,-0.091782923,2.9,-1.447771513,5.127,66,17,14,0.84,female
11,3,3,3000,44,1,1,1,1195,5.166666667,2.344827586,Pelican,Birds,VESTUÁRIO,FALSE,0.5,0,healthy,-0.5,Old,5.166666667,-0.117068868,-1.463646324,2.34,-0.752045481,1.477121255,1.854461211,4.87,-1.579960769,5.066,66,17,14,0.84,female
11,3,1,1500,45,2,1,2,3537,3.958333333,3.275862069,Bat,Mammals,MAMÍFERO,aTRUE,-0.5,0,healthy,-0.5,Old,3.958333333,-1.009688656,-0.65102477,3.28,0.063089335,2.292256071,0.431825905,3.43,0.301027332,5.934,66,17,14,0.84,female
11,3,4,2500,46,2,1,2,1607,4.208333333,3.24137931,Tricycle,Vehicles,VEÍCULO,aTRUE,-0.5,0,healthy,-0.5,Old,4.208333333,-0.8250087,-0.685604411,3.24,-0.627106745,1.602059991,-1.020447637,1.96,0.181840298,5.879,66,17,14,0.84,female
11,3,1,2000,47,2,1,2,3898,6.375,4.275862069,Horse,Mammals,MAMÍFERO,aTRUE,-0.5,0,healthy,-0.5,Old,6.375,0.77555092,0.213466245,4.28,0.991725513,3.220892249,-1.277312345,1.7,0.743102877,6.138,66,17,14,0.84,female
11,3,4,2500,48,1,1,1,1816,6.25,6.413793103,Knife,Weapon,VEÍCULO,FALSE,0.5,0,healthy,-0.5,Old,6.25,0.683210942,2.054832106,6.41,0.948658236,3.177824972,-1.020447637,1.96,0.515563994,6.033,66,17,14,0.84,female
11,3,4,3000,49,2,1,2,1740,4.416666667,3.24137931,Yatch,Vehicles,VEÍCULO,aTRUE,-0.5,0,healthy,-0.5,Old,4.416666667,-0.671108736,-0.685604411,3.24,0.047295068,2.276461804,2.249637685,5.27,0.552403622,6.05,66,17,14,0.84,female
11,3,1,2000,50,1,1,1,1271,5.541666667,3.034482759,Kettle,Kitchent Utensil,MAMÍFERO,FALSE,0.5,0,healthy,-0.5,Old,5.541666667,0.159951067,-0.867147524,3.03,-0.326076749,1.903089987,1.2616965,4.27,-0.622130422,5.508,66,17,14,0.84,female
11,3,2,2000,51,1,1,1,2356,5.1,2.034482759,Pie pan,Kitchent Utensil,FRUTO,FALSE,0.5,0,healthy,-0.5,Old,5.1,-0.166316856,-1.731638538,2.03,-2.229166736,NA,-2.956812359,NA,-12.55817012,NA,66,17,14,0.84,female
11,3,2,1500,52,1,1,1,3226,4.666666667,5.689655172,Potato,Vegetable,FRUTO,FALSE,0.5,0,healthy,-0.5,Old,4.666666667,-0.48642878,1.432398576,5.69,0.429798106,2.658964843,-1.109362343,1.87,-0.51594561,5.557,66,17,14,0.84,female
11,3,3,3000,53,2,1,2,1424,3.173913043,3.517241379,Cloak,Clothing,VESTUÁRIO,aTRUE,-0.5,0,healthy,-0.5,Old,3.173913043,-1.589155475,-0.443546926,3.52,0.021253266,2.250420002,-2.956812359,NA,-12.55817012,NA,66,17,14,0.84,female
11,3,2,3000,54,1,1,1,1334,6.75,2.75862069,Falcon,Birds,FRUTO,FALSE,0.5,0,healthy,-0.5,Old,6.75,1.052570855,-1.100560098,2.76,0.028511839,2.257678575,1.350611207,4.36,-0.604794126,5.516,66,17,14,0.84,female
11,3,1,2500,55,2,1,2,1305,6.625,4.275862069,Lion,Mammals,MAMÍFERO,aTRUE,-0.5,0,healthy,-0.5,Old,6.625,0.960230877,0.213466245,4.28,0.433591096,2.662757832,-1.109362343,1.87,-0.394591539,5.613,66,17,14,0.84,female
11,3,3,2500,56,1,1,1,1414,4.375,4.103448276,Chickpeas,Vegetable,VESTUÁRIO,FALSE,0.5,0,healthy,-0.5,Old,4.375,-0.701888729,0.057857862,4.1,0.084700484,2.31386722,-0.081903511,2.91,-0.097707473,5.75,66,17,14,0.84,female
11,3,2,2000,58,2,1,2,1286,6.791666667,3.965517241,Plum,Fruit,FRUTO,aTRUE,-0.5,0,healthy,-0.5,Old,6.791666667,1.083350848,-0.05452597,3.97,-0.315352884,1.913813852,-0.18069763,2.81,0.840619541,6.183,66,17,14,0.84,female
11,3,2,1500,59,2,1,2,2066,2.625,4.620689655,Olive,Fruit,FRUTO,aTRUE,-0.5,0,healthy,-0.5,Old,2.625,-1.994648422,0.50739319,4.62,-0.443836901,1.785329835,0.007011196,3,1.527570265,6.5,66,17,14,0.84,female
11,3,4,1500,61,2,1,2,1523,6.708333333,6.206896552,Bus,Vehicles,VEÍCULO,aTRUE,-0.5,0,healthy,-0.5,Old,6.708333333,1.021790862,1.881933903,6.21,0.782826378,3.011993115,0.13544355,3.13,1.341205084,6.414,66,17,14,0.84,female
11,3,3,3000,62,1,1,1,1137,6.708333333,3.965517241,Seagull,Birds,VESTUÁRIO,FALSE,0.5,0,healthy,-0.5,Old,6.708333333,1.021790862,-0.05452597,3.97,-0.504890867,1.72427587,-0.081903511,2.91,0.515563994,6.033,66,17,14,0.84,female
11,3,3,2500,63,2,1,2,1032,6.75,5.310344828,Skirt,Clothing,VESTUÁRIO,aTRUE,-0.5,0,healthy,-0.5,Old,6.75,1.052570855,1.10389199,5.31,1.291709646,3.520876382,-0.980929989,2,0.623915843,6.083,66,17,14,0.84,female
11,3,4,2500,64,1,1,1,1319,6.375,3.620689655,Canary,Birds,VEÍCULO,FALSE,0.5,0,healthy,-0.5,Old,6.375,0.77555092,-0.357097825,3.62,-0.37183424,1.857332496,0.194720021,3.19,0.593577325,6.069,66,17,14,0.84,female
11,2,3,2500,1,2,1,2,1332,6.958333333,6.551724138,Pants,Clothing,VESTUÁRIO,aTRUE,-0.5,0,healthy,-0.5,Old,6.958333333,1.206470818,2.175860848,6.55,0.997433169,3.226599905,-1.237794697,1.74,2.06932951,6.75,66,17,14,0.84,female
11,2,2,2500,2,1,1,1,1479,4.083333333,5.172413793,Scissors,Kitchent Utensil,FRUTO,FALSE,0.5,0,healthy,-0.5,Old,4.083333333,-0.917348678,0.982863248,5.17,0.140049121,2.369215857,-0.378285867,2.61,0.883960281,6.203,66,17,14,0.84,female
11,2,1,2500,3,2,1,2,1619,4.75,3.344827586,Otter,Mammals,MAMÍFERO,aTRUE,-0.5,0,healthy,-0.5,Old,4.75,-0.424868795,-0.599155309,3.34,-0.766768738,1.462397998,1.083867087,4.09,0.333532887,5.949,66,17,14,0.84,female
11,2,4,2000,5,1,1,1,2499,6.565217391,2.551724138,Bazooka,Weapon,VEÍCULO,FALSE,0.5,0,healthy,-0.5,Old,6.565217391,0.916068278,-1.282103211,2.55,-0.496772976,1.73239376,-2.956812359,NA,-12.55817012,NA,66,17,14,0.84,female
11,2,3,1500,6,2,1,2,1323,5.333333333,6.172413793,Pajama,Clothing,VESTUÁRIO,aTRUE,-0.5,0,healthy,-0.5,Old,5.333333333,0.006051103,1.847354263,6.17,0.314901308,2.544068044,-0.892015283,2.09,-0.037030437,5.778,66,17,14,0.84,female
11,2,2,2000,7,1,1,1,1766,6.875,5.344827586,Pot,Kitchent Utensil,FRUTO,FALSE,0.5,0,healthy,-0.5,Old,6.875,1.144910833,1.12982672,5.34,-0.605917446,1.62324929,-0.319009395,2.67,0.190508446,5.883,66,17,14,0.84,female
11,2,2,2000,8,2,1,2,1049,7,5.482758621,Orange,Fruit,FRUTO,aTRUE,-0.5,0,healthy,-0.5,Old,7,1.237250811,1.250855463,5.48,0.566017854,2.79518459,-1.148879991,1.83,1.26535879,6.379,66,17,14,0.84,female
11,2,3,3000,9,1,1,1,1191,6.833333333,5.344827586,Frying pan,Kitchent Utensil,VESTUÁRIO,FALSE,0.5,0,healthy,-0.5,Old,6.833333333,1.11413084,1.12982672,5.34,-0.157284729,2.071882007,0.24411708,3.24,-0.706644865,5.469,66,17,14,0.84,female
11,2,1,2000,10,2,1,2,1854,6.541666667,3.586206897,Gorilla,Mammals,MAMÍFERO,aTRUE,-0.5,0,healthy,-0.5,Old,6.541666667,0.898670891,-0.383032555,3.59,0.101247037,2.330413773,-0.279491748,2.71,-0.693642643,5.475,66,17,14,0.84,female
11,2,4,2500,11,2,1,2,1846,6.708333333,4.655172414,Truck,Vehicles,VEÍCULO,aTRUE,-0.5,0,healthy,-0.5,Old,6.708333333,1.021790862,0.54197283,4.66,0.652217921,2.881384657,-0.803100576,2.18,-0.743484493,5.452,66,17,14,0.84,female
11,2,4,1500,12,1,1,1,1217,6.791666667,6.344827586,Fork,Kitchent Utensil,VEÍCULO,FALSE,0.5,0,healthy,-0.5,Old,6.791666667,1.083350848,1.994317735,6.34,0.078329302,2.307496038,-1.020447637,1.96,-1.972194463,4.885,66,17,14,0.84,female
11,2,2,3000,13,2,1,2,971,6.916666667,5.586206897,Banana,Fruit,FRUTO,aTRUE,-0.5,0,healthy,-0.5,Old,6.916666667,1.175690826,1.345949474,5.59,0.41428594,2.643452676,-1.148879991,1.83,1.252356568,6.373,66,17,14,0.84,female
11,2,2,3000,14,1,1,1,2650,6.583333333,3.793103448,Cauliflower,Vegetable,FRUTO,FALSE,0.5,0,healthy,-0.5,Old,6.583333333,0.929450884,-0.210134352,3.79,-0.782008705,1.447158031,0.668931789,3.67,-12.55817012,NA,66,17,14,0.84,female
11,2,3,1500,15,1,1,1,2779,6.625,3.068965517,Grenade,Weapon,VESTUÁRIO,FALSE,0.5,0,healthy,-0.5,Old,6.625,0.960230877,-0.832567883,3.07,0.33785963,2.567026366,1.755667092,4.77,-0.407593761,5.607,66,17,14,0.84,female
11,2,1,1500,16,2,1,2,1106,5.666666667,2.965517241,Buffalo,Mammals,MAMÍFERO,aTRUE,-0.5,0,healthy,-0.5,Old,5.666666667,0.252291045,-0.919016985,2.97,-0.115223384,2.113943352,1.083867087,4.09,-0.44443339,5.59,66,17,14,0.84,female
11,2,4,2000,17,2,1,2,3174,5.083333333,3.689655172,Ship,Vehicles,VEÍCULO,aTRUE,-0.5,0,healthy,-0.5,Old,5.083333333,-0.178628853,-0.296583454,3.69,0.684117166,2.913283902,0.056408255,3.05,0.823283245,6.175,66,17,14,0.84,female
11,2,2,3000,18,1,1,1,1254,6.625,4.068965517,Pistol,Weapon,FRUTO,FALSE,0.5,0,healthy,-0.5,Old,6.625,0.960230877,0.031923132,4.07,0.793673875,3.022840611,-0.506718221,2.48,0.628249917,6.085,66,17,14,0.84,female
11,2,4,1500,19,1,1,1,1276,6.208333333,4.793103448,Peas,Vegetable,VEÍCULO,FALSE,0.5,0,healthy,-0.5,Old,6.208333333,0.652430949,0.654356662,4.79,-0.0830387,2.146128036,-0.368406455,2.62,-12.55817012,NA,66,17,14,0.84,female
11,2,3,2000,20,2,1,2,1492,5.583333333,6.137931034,Socks,Clothing,VESTUÁRIO,aTRUE,-0.5,0,healthy,-0.5,Old,5.583333333,0.190731059,1.821419532,6.14,0.63057183000000006,2.859738566,-1.474900582,1.5,0.628249917,6.085,66,17,14,0.84,female
11,2,3,3000,21,1,1,1,1195,6.208333333,5.517241379,Lettuce,Vegetable,VESTUÁRIO,FALSE,0.5,0,healthy,-0.5,Old,6.208333333,0.652430949,1.285435103,5.52,-0.142806905,2.086359831,-0.279491748,2.71,-0.037030437,5.778,66,17,14,0.84,female
11,2,2,2500,22,2,1,2,1016,6.833333333,5,Grape,Fruit,FRUTO,aTRUE,-0.5,0,healthy,-0.5,Old,6.833333333,1.11413084,0.835899775,5,0.049586865,2.278753601,-1.079724108,1.9,-12.55817012,NA,66,17,14,0.84,female
11,2,1,2500,23,1,1,1,1233,5.875,4.275862069,Cucumber,Vegetable,MAMÍFERO,FALSE,0.5,0,healthy,-0.5,Old,5.875,0.406191008,0.213466245,4.28,-0.08928765,2.139879086,0.333031786,3.33,-0.325246356,5.645,66,17,14,0.84,female
11,2,1,1500,24,1,1,1,1213,6.458333333,4.103448276,Sword,Weapon,MAMÍFERO,FALSE,0.5,0,healthy,-0.5,Old,6.458333333,0.837110906,0.057857862,4.1,0.73838124,2.967547976,-0.170818218,2.82,0.810281023,6.169,66,17,14,0.84,female
11,2,3,3000,25,2,1,2,955,4.75,6.103448276,Shoe,Clothing,VESTUÁRIO,aTRUE,-0.5,0,healthy,-0.5,Old,4.75,-0.424868795,1.786839892,6.1,0.536501819,2.765668555,-1.336588816,1.64,-0.045698585,5.774,66,17,14,0.84,female
11,2,4,3000,26,1,1,1,2379,6.166666667,3.034482759,Raven,Birds,VEÍCULO,FALSE,0.5,0,healthy,-0.5,Old,6.166666667,0.621650957,-0.867147524,3.03,-0.079947624,2.149219113,0.431825905,3.43,-0.026195252,5.783,66,17,14,0.84,female
11,2,4,2500,27,2,1,2,1763,5.75,6.655172414,Subway,Vehicles,VEÍCULO,aTRUE,-0.5,0,healthy,-0.5,Old,5.75,0.31385103,2.27095486,6.66,0.716301849,2.945468585,1.212299441,4.22,-1.001361894,5.333,66,17,14,0.84,female
11,2,1,2500,28,2,1,2,1308,5.958333333,4.689655172,Rabbit,Mammals,MAMÍFERO,aTRUE,-0.5,0,healthy,-0.5,Old,5.958333333,0.467750993,0.567907561,4.69,0.504030529,2.733197265,-1.277312345,1.7,-0.463936723,5.581,66,17,14,0.84,female
11,2,2,2500,30,2,1,2,1191,6.375,4.482758621,Kiwi,Fruit,FRUTO,aTRUE,-0.5,0,healthy,-0.5,Old,6.375,0.77555092,0.386364448,4.48,-0.724016758,1.505149978,0.738087672,3.74,-0.10637562,5.746,66,17,14,0.84,female
11,2,4,3000,31,2,1,2,1506,5.458333333,4.931034483,Bicycle,Vehicles,VEÍCULO,aTRUE,-0.5,0,healthy,-0.5,Old,5.458333333,0.098391081,0.775385404,4.93,0.722656299,2.951823035,-1.069844696,1.91,0.727933618,6.131,66,17,14,0.84,female
11,2,1,2500,32,1,1,1,3433,6.166666667,2.862068966,Partridge,Birds,MAMÍFERO,FALSE,0.5,0,healthy,-0.5,Old,6.166666667,0.621650957,-1.014110996,2.86,-0.737805042,1.491361694,1.37037003,4.38,-1.79449743,4.967,66,17,14,0.84,female
11,2,1,1500,33,1,1,1,1653,5.333333333,5.103448276,Tomato,Vegetable,MAMÍFERO,FALSE,0.5,0,healthy,-0.5,Old,5.333333333,0.006051103,0.922348877,5.1,0.364119331,2.593286067,-0.684547634,2.3,-0.463936723,5.581,66,17,14,0.84,female
11,2,2,2000,34,2,1,2,1405,6.333333333,3.586206897,Medlar,Fruit,FRUTO,aTRUE,-0.5,0,healthy,-0.5,Old,6.333333333,0.744770927,-0.383032555,3.59,-2.229166736,0,-2.956812359,NA,-12.55817012,NA,66,17,14,0.84,female
11,2,4,3000,35,1,1,1,1590,5.416666667,3.068965517,Beetroot,Vegetable,VEÍCULO,FALSE,0.5,0,healthy,-0.5,Old,5.416666667,0.067611089,-0.832567883,3.07,-0.595698281,1.633468456,1.488922973,4.5,-1.339419664,5.177,66,17,14,0.84,female
11,2,4,2500,36,1,1,1,1723,5.041666667,2.75862069,Stick,Weapon,VEÍCULO,FALSE,0.5,0,healthy,-0.5,Old,5.041666667,-0.209408846,-1.100560098,2.76,0.185806612,2.414973348,2.150843566,5.17,-2.930024809,4.443,66,17,14,0.84,female
11,2,1,1500,37,2,1,2,1115,4.916666667,3.275862069,Seal,Mammals,MAMÍFERO,aTRUE,-0.5,0,healthy,-0.5,Old,4.916666667,-0.301748824,-0.65102477,3.28,-0.118577026,2.11058971,-0.635150575,2.35,-0.570121535,5.532,66,17,14,0.84,female
11,2,3,2000,38,2,1,2,1639,3.916666667,4.034482759,Cap,Clothing,VESTUÁRIO,aTRUE,-0.5,0,healthy,-0.5,Old,3.916666667,-1.040468649,-0.002656509,4.03,0.151044506,2.380211242,-0.93153293,2.05,0.920799909,6.22,66,17,14,0.84,female
11,2,1,2000,39,2,1,2,1257,6.166666667,4,Dolphin,Mammals,MAMÍFERO,aTRUE,-0.5,0,healthy,-0.5,Old,6.166666667,0.621650957,-0.028591239,4,-0.246895503,1.982271233,-0.210335865,2.78,1.274026938,6.383,66,17,14,0.84,female
11,2,1,2500,40,1,1,1,1228,5.041666667,3.034482759,Tank,Weapon,MAMÍFERO,FALSE,0.5,0,healthy,-0.5,Old,5.041666667,-0.209408846,-0.867147524,3.03,0.622702865,2.851869601,-2.956812359,NA,-1.289577813,5.2,66,17,14,0.84,female
11,2,3,1500,41,2,1,2,1096,4.208333333,4.344827586,Tie,Clothing,VESTUÁRIO,aTRUE,-0.5,0,healthy,-0.5,Old,4.208333333,-0.8250087,0.265335706,4.34,0.540948559,2.770115295,0.392308258,3.39,-0.498609314,5.565,66,17,14,0.84,female
11,2,3,1500,42,1,1,1,1325,6.25,4.310344828,Pigeon,Birds,VESTUÁRIO,FALSE,0.5,0,healthy,-0.5,Old,6.25,0.683210942,0.239400975,4.31,-0.203860871,2.025305865,-0.793221164,2.19,0.480891402,6.017,66,17,14,0.84,female
11,2,2,1500,43,1,1,1,2121,4.875,3.137931034,Axe,Weapon,FRUTO,FALSE,0.5,0,healthy,-0.5,Old,4.875,-0.332528817,-0.772053512,3.14,0.319836526,2.549003262,0.194720021,3.19,-0.206059322,5.7,66,17,14,0.84,female
11,2,2,1500,44,2,1,2,1509,5.958333333,2.793103448,Grapefruit,Fruit,FRUTO,aTRUE,-0.5,0,healthy,-0.5,Old,5.958333333,0.467750993,-1.074625367,2.79,-0.616382879,1.612783857,1.2616965,4.27,-1.72298521,5,66,17,14,0.84,female
11,2,3,1500,46,1,1,1,1808,4.166666667,2.620689655,Tear gass,Weapon,VESTUÁRIO,FALSE,0.5,0,healthy,-0.5,Old,4.166666667,-0.855788692,-1.22158884,2.62,-2.229166736,NA,-2.956812359,NA,-12.55817012,NA,66,17,14,0.84,female
11,2,4,2000,47,2,1,2,1954,2.75,3.379310345,Canoe,Vehicles,VEÍCULO,aTRUE,-0.5,0,healthy,-0.5,Old,2.75,-1.902308444,-0.564575668,3.38,-0.146381366,2.08278537,0.708449437,3.71,0.149334744,5.864,66,17,14,0.84,female
11,2,4,2500,48,1,1,1,2192,5.375,2.517241379,Flamingo,Birds,VEÍCULO,FALSE,0.5,0,healthy,-0.5,Old,5.375,0.036831096,-1.308037941,2.52,-0.660965012,1.568201724,1.37037003,4.38,-0.385923391,5.617,66,17,14,0.84,female
11,2,2,3000,49,2,1,2,961,4.75,2.896551724,Avocado,Fruit,FRUTO,aTRUE,-0.5,0,healthy,-0.5,Old,4.75,-0.424868795,-0.979531356,2.9,-0.575954222,1.653212514,1.982893565,5,-0.849669306,5.403,66,17,14,0.84,female
11,2,3,1500,50,2,1,2,1564,3.416666667,5.379310345,Belt,Clothing,VESTUÁRIO,aTRUE,-0.5,0,healthy,-0.5,Old,3.416666667,-1.409828561,1.164406361,5.38,0.685176421,2.914343157,-0.763582929,2.22,0.743102877,6.138,66,17,14,0.84,female
11,2,3,2000,51,1,1,1,1220,5.416666667,4.275862069,Duck,Birds,VESTUÁRIO,FALSE,0.5,0,healthy,-0.5,Old,5.416666667,0.067611089,0.213466245,4.28,0.406317011,2.635483747,-1.267432933,1.71,0.738768803,6.136,66,17,14,0.84,female
11,2,2,3000,52,1,1,1,1800,5.958333333,4.448275862,Chicken,Birds,FRUTO,FALSE,0.5,0,healthy,-0.5,Old,5.958333333,0.467750993,0.360429717,4.45,0.723625707,2.952792443,-0.852497635,2.13,1.414884341,6.448,66,17,14,0.84,female
11,2,1,2000,53,1,1,1,1832,5.708333333,2.103448276,Pheasant,Birds,MAMÍFERO,FALSE,0.5,0,healthy,-0.5,Old,5.708333333,0.283071037,-1.671124167,2.1,-0.627106745,1.602059991,1.627234738,4.64,-2.444608525,4.667,66,17,14,0.84,female
11,2,2,1500,56,1,1,1,1499,5.541666667,2.551724138,Vulture,Birds,FRUTO,FALSE,0.5,0,healthy,-0.5,Old,5.541666667,0.159951067,-1.282103211,2.55,-0.274924227,1.954242509,1.745787681,4.76,0.257686593,5.914,66,17,14,0.84,female
11,2,1,1000,57,1,1,1,1294,6.625,4.862068966,Ladle,Kitchent Utensil,MAMÍFERO,FALSE,0.5,0,healthy,-0.5,Old,6.625,0.960230877,0.714871033,4.86,-2.229166736,NA,-2.956812359,NA,0.554570659,6.051,66,17,14,0.84,female
11,2,4,2500,59,2,1,2,1817,2.375,2.827586207,Sled,Vehicles,VEÍCULO,aTRUE,-0.5,0,healthy,-0.5,Old,2.375,-2.179328379,-1.040045727,2.83,-0.102061938,2.127104798,-0.081903511,2.91,-0.780324122,5.435,66,17,14,0.84,female
11,2,3,3000,60,1,1,1,1790,3.958333333,3.551724138,Timer,Kitchent Utensil,VESTUÁRIO,FALSE,0.5,0,healthy,-0.5,Old,3.958333333,-1.009688656,-0.417612196,3.55,-0.30488745,1.924279286,-2.956812359,NA,-12.55817012,NA,66,17,14,0.84,female
11,2,2,1500,61,2,1,2,1069,3.869565217,2.965517241,Cherry,Fruit,FRUTO,aTRUE,-0.5,0,healthy,-0.5,Old,3.869565217,-1.075263423,-0.919016985,2.97,-1.326076749,0.903089987,1.083867087,4.09,-1.985196685,4.879,66,17,14,0.84,female
11,2,4,2000,62,1,1,1,1452,3.956521739,2.620689655,Skewer,Kitchent Utensil,FRUTO,FALSE,0.5,0,healthy,-0.5,Old,3.956521739,-1.011026917,-1.22158884,2.62,-0.079947624,2.149219113,-2.956812359,NA,-12.55817012,NA,66,17,14,0.84,female
11,2,3,2000,63,2,1,2,1284,1.916666667,4.793103448,Necklace,Clothing,VESTUÁRIO,aTRUE,-0.5,0,healthy,-0.5,Old,1.916666667,-2.517908298,0.654356662,4.79,0.566017854,2.79518459,-0.55611528,2.43,-12.55817012,NA,66,17,14,0.84,female
11,2,1,3000,64,1,1,1,1139,2.833333333,5,Broom,Kitchent Utensil,MAMÍFERO,FALSE,0.5,0,healthy,-0.5,Old,2.833333333,-1.840748459,0.835899775,5,0.035651087,2.264817823,-0.743824105,2.24,0.515563994,6.033,66,17,14,0.84,female
11,1,1,1500,1,2,1,2,2500,6.75,6.172413793,Dog,Mammals,MAMÍFERO,aTRUE,-0.5,0,healthy,-0.5,Old,6.75,1.052570855,1.847354263,6.17,1.119721987,3.348888723,-1.672488819,1.3,0.732267692,6.133,66,17,14,0.84,female
11,1,3,2500,3,2,1,2,1829,4.541666667,4.517241379,Robe,Clothing,VESTUÁRIO,aTRUE,-0.5,0,healthy,-0.5,Old,4.541666667,-0.578768758,0.420944088,4.52,0.030904652,2.260071388,-2.956812359,NA,-0.026195252,5.783,66,17,14,0.84,female
11,1,1,1500,4,1,1,1,1888,6.958333333,4.24137931,Broccoli,Vegetable,MAMÍFERO,FALSE,0.5,0,healthy,-0.5,Old,6.958333333,1.206470818,0.178886604,4.24,-0.64938314,1.579783597,0.906037674,3.91,0.368205479,5.965,66,17,14,0.84,female
11,1,1,2500,5,1,1,1,2201,6.958333333,3.482758621,Machine gun,Weapon,MAMÍFERO,FALSE,0.5,0,healthy,-0.5,Old,6.958333333,1.206470818,-0.478126567,3.48,0.06529949,2.294466226,0.856640614,3.86,0.370372516,5.966,66,17,14,0.84,female
11,1,4,1500,6,2,1,2,1775,5.958333333,5.413793103,Airplane,Vehicles,VEÍCULO,aTRUE,-0.5,0,healthy,-0.5,Old,5.958333333,0.467750993,1.190341092,5.41,1.050500208,3.279666944,-1.583574112,1.39,1.102831016,6.304,66,17,14,0.84,female
11,1,2,3000,7,2,1,2,1446,7,5.827586207,Apple,Fruit,FRUTO,aTRUE,-0.5,0,healthy,-0.5,Old,7,1.237250811,1.553427318,5.83,0.490164551,2.719331287,-1.544056464,1.43,1.68142989,6.571,66,17,14,0.84,female
11,1,2,1500,8,1,1,1,2823,6.75,4.793103448,Carrot,Vegetable,FRUTO,FALSE,0.5,0,healthy,-0.5,Old,6.75,1.052570855,0.654356662,4.79,-0.061849401,2.167317335,-0.635150575,2.35,-0.463936723,5.581,66,17,14,0.84,female
11,1,1,2500,9,2,1,2,2318,6.125,3.517241379,Giraffe,Mammals,MAMÍFERO,aTRUE,-0.5,0,healthy,-0.5,Old,6.125,0.590870964,-0.443546926,3.52,-0.265378909,1.963787827,-0.941412342,2.04,-0.385923391,5.617,66,17,14,0.84,female
11,1,3,3000,10,2,1,2,1799,6.833333333,5.655172414,Shirt,Clothing,VESTUÁRIO,aTRUE,-0.5,0,healthy,-0.5,Old,6.833333333,1.11413084,1.406463845,5.66,0.963400717,3.192567453,-0.55611528,2.43,0.333532887,5.949,66,17,14,0.84,female
11,1,2,1500,11,1,1,1,2194,6.875,3.103448276,Revolver,Weapon,FRUTO,FALSE,0.5,0,healthy,-0.5,Old,6.875,1.144910833,-0.806633153,3.1,0.17566698,2.404833717,1.469164149,4.48,0.656421398,6.098,66,17,14,0.84,female
11,1,3,2000,12,1,1,1,2040,6.666666667,4.655172414,Cabbage,Vegetable,VESTUÁRIO,FALSE,0.5,0,healthy,-0.5,Old,6.666666667,0.99101087,0.54197283,4.66,-0.342676011,1.886490725,-0.319009395,2.67,-1.001361894,5.333,66,17,14,0.84,female
11,1,3,3000,13,1,1,1,1795,6.75,3.137931034,Missile,Weapon,VESTUÁRIO,FALSE,0.5,0,healthy,-0.5,Old,6.75,1.052570855,-0.772053512,3.14,0.130668746,2.359835482,-2.956812359,NA,-0.206059322,5.7,66,17,14,0.84,female
11,1,1,2000,14,1,1,1,2261,5.714285714,2.206896552,colander,Kitchent Utensil,MAMÍFERO,FALSE,0.5,0,healthy,-0.5,Old,5.714285714,0.287468179,-1.576030156,2.21,-0.973894231,1.255272505,1.281455324,4.29,-1.894181131,4.921,66,17,14,0.84,female
11,1,2,1500,15,2,1,2,1748,6.958333333,5.172413793,Pear,Fruit,FRUTO,aTRUE,-0.5,0,healthy,-0.5,Old,6.958333333,1.206470818,0.982863248,5.17,-0.242395002,1.986771734,-1.405744699,1.57,0.6975951,6.117,66,17,14,0.84,female
11,1,4,3000,16,1,1,1,1728,6.625,4.206896552,Spinach,Vegetable,VEÍCULO,FALSE,0.5,0,healthy,-0.5,Old,6.625,0.960230877,0.152951874,4.21,-0.672864235,1.556302501,-0.091782923,2.9,-1.129217076,5.274,66,17,14,0.84,female
11,1,4,2000,17,1,1,1,1703,6.291666667,3.620689655,Parakeet,Birds,VEÍCULO,FALSE,0.5,0,healthy,-0.5,Old,6.291666667,0.713990935,-0.357097825,3.62,-0.638102129,1.591064607,0.007011196,3,0.517731031,6.034,66,17,14,0.84,female
11,1,3,2000,18,2,1,2,1274,6.666666667,5.24137931,Blouse,Clothing,VESTUÁRIO,aTRUE,-0.5,0,healthy,-0.5,Old,6.666666667,0.99101087,1.043377619,5.24,0.357420569,2.586587305,-0.595632927,2.39,1.139670645,6.321,66,17,14,0.84,female
11,1,2,1500,19,1,1,1,2013,6.375,3.344827586,Sparrow,Birds,FRUTO,FALSE,0.5,0,healthy,-0.5,Old,6.375,0.77555092,-0.599155309,3.34,-0.443836901,1.785329835,0.056408255,3.05,0.298860295,5.933,66,17,14,0.84,female
11,1,1,1500,20,2,1,2,1649,6.333333333,4.896551724,Pig,Mammals,MAMÍFERO,aTRUE,-0.5,0,healthy,-0.5,Old,6.333333333,0.744770927,0.749450674,4.9,0.949234605,3.178401342,-1.119241755,1.86,-0.255901172,5.677,66,17,14,0.84,female
11,1,4,2500,21,2,1,2,1912,6.625,5.551724138,Van,Vehicles,VEÍCULO,aTRUE,-0.5,0,healthy,-0.5,Old,6.625,0.960230877,1.311369834,5.55,0.667359481,2.896526217,-0.467200573,2.52,0.480891402,6.017,66,17,14,0.84,female
11,1,3,2500,22,1,1,1,1451,5.708333333,3.275862069,Swan,Birds,VESTUÁRIO,FALSE,0.5,0,healthy,-0.5,Old,5.708333333,0.283071037,-0.65102477,3.28,-0.191740238,2.037426498,-0.042385864,2.95,0.372539553,5.967,66,17,14,0.84,female
11,1,3,2000,23,1,1,1,2001,6.291666667,3.344827586,Stork,Birds,VESTUÁRIO,FALSE,0.5,0,healthy,-0.5,Old,6.291666667,0.713990935,-0.599155309,3.34,-0.538970656,1.69019608,-0.842618223,2.14,0.883960281,6.203,66,17,14,0.84,female
11,1,1,2500,24,2,1,2,1770,5.041666667,2.517241379,Moose,Mammals,MAMÍFERO,aTRUE,-0.5,0,healthy,-0.5,Old,5.041666667,-0.209408846,-1.308037941,2.52,-0.102061938,2.127104798,1.854461211,4.87,-1.72298521,5,66,17,14,0.84,female
11,1,4,2500,25,2,1,2,1979,3.666666667,3.068965517,Submarine,Vehicles,VEÍCULO,aTRUE,-0.5,0,healthy,-0.5,Old,3.666666667,-1.225148605,-0.832567883,3.07,0.170506985,2.399673721,1.182661205,4.19,-0.51594561,5.557,66,17,14,0.84,female
11,1,4,2000,26,1,1,1,2331,6.666666667,3.310344828,Shotgun,Weapon,VEÍCULO,FALSE,0.5,0,healthy,-0.5,Old,6.666666667,0.99101087,-0.625090039,3.31,0.444775262,2.673941999,1.380249442,4.39,-0.216894507,5.695,66,17,14,0.84,female
11,1,2,2000,27,1,1,1,1859,5.75,3.137931034,Peacock,Birds,FRUTO,FALSE,0.5,0,healthy,-0.5,Old,5.75,0.31385103,-0.772053512,3.14,-0.436775047,1.792391689,0.056408255,3.05,-0.849669306,5.403,66,17,14,0.84,female
11,1,3,3000,28,2,1,2,1455,4.041666667,5.724137931,Slipper,Clothing,VESTUÁRIO,aTRUE,-0.5,0,healthy,-0.5,Old,4.041666667,-0.94812867,1.458333306,5.72,-0.14998549,2.079181246,-0.941412342,2.04,-0.045698585,5.774,66,17,14,0.84,female
11,1,3,1500,29,2,1,2,1747,5.541666667,5.551724138,Bra,Clothing,VESTUÁRIO,aTRUE,-0.5,0,healthy,-0.5,Old,5.541666667,0.159951067,1.311369834,5.55,-0.014322888,2.214843848,-2.956812359,NA,-12.55817012,NA,66,17,14,0.84,female
11,1,1,3000,30,2,1,2,1335,5.333333333,3.586206897,Whale,Mammals,MAMÍFERO,aTRUE,-0.5,0,healthy,-0.5,Old,5.333333333,0.006051103,-0.383032555,3.59,0.189134555,2.418301291,0.007011196,3,-0.10637562,5.746,66,17,14,0.84,female
11,1,2,2000,32,1,1,1,2046,2.5,5.379310345,Stone,Weapon,FRUTO,FALSE,0.5,0,healthy,-0.5,Old,2.5,-2.086988401,1.164406361,5.38,0.961445062,3.190611798,-2.956812359,NA,1.094162868,6.3,66,17,14,0.84,female
11,1,1,2500,33,1,1,1,7596,5.875,4.206896552,Rooster,Birds,MAMÍFERO,FALSE,0.5,0,healthy,-0.5,Old,5.875,0.406191008,0.152951874,4.21,0.224151604,2.45331834,-1.030327048,1.95,0.372539553,5.967,66,17,14,0.84,female
11,1,1,2000,34,2,1,2,2296,5.541666667,2.931034483,Hyena,Mammals,MAMÍFERO,aTRUE,-0.5,0,healthy,-0.5,Old,5.541666667,0.159951067,-0.953596625,2.93,-0.547925499,1.681241237,1.311093559,4.32,-0.518112647,5.556,66,17,14,0.84,female
11,1,2,3000,35,2,1,2,1622,5.52173913,2.896551724,Nectarine,Fruit,FRUTO,aTRUE,-0.5,0,healthy,-0.5,Old,5.52173913,0.1452302,-0.979531356,2.9,-2.229166736,0,-2.956812359,NA,-12.55817012,NA,66,17,14,0.84,female
11,1,3,2500,36,1,1,1,1623,2.434782609,3.103448276,Crowbar,Weapon,VESTUÁRIO,FALSE,0.5,0,healthy,-0.5,Old,2.434782609,-2.13516578,-0.806633153,3.1,0.074029321,2.303196057,-2.956812359,NA,-12.55817012,NA,66,17,14,0.84,female
11,1,1,1500,38,1,1,1,1549,4.75,2.482758621,Basting brush,Kitchent Utensil,MAMÍFERO,FALSE,0.5,0,healthy,-0.5,Old,4.75,-0.424868795,-1.342617582,2.48,-2.229166736,NA,-0.121421159,2.87,0.149334744,5.864,66,17,14,0.84,female
11,1,1,2000,39,1,1,1,2864,3.125,4.689655172,Mushroom,Vegetable,MAMÍFERO,FALSE,0.5,0,healthy,-0.5,Old,3.125,-1.62528851,0.567907561,4.69,-0.274924227,1.954242509,0.056408255,3.05,0.667256582,6.103,66,17,14,0.84,female
11,1,4,2000,40,2,1,2,2588,5.708333333,4.137931034,Street car/trolley,Vehicles,VEÍCULO,aTRUE,-0.5,0,healthy,-0.5,Old,5.708333333,0.283071037,0.092437503,4.14,0.250840207,2.480006943,0.24411708,3.24,-2.386098526,4.694,66,17,14,0.84,female
11,1,2,3000,41,1,1,1,2768,4.695652174,2.448275862,Flour sifter,Kitchent Utensil,FRUTO,FALSE,0.5,0,healthy,-0.5,Old,4.695652174,-0.465016611,-1.368552312,2.45,-0.724016758,1.505149978,-2.956812359,NA,-12.55817012,NA,66,17,14,0.84,female
11,1,4,2000,42,2,1,2,2533,3.083333333,3.137931034,Rocket,Vehicles,VEÍCULO,aTRUE,-0.5,0,healthy,-0.5,Old,3.083333333,-1.656068503,-0.772053512,3.14,-0.270125344,1.959041392,-0.091782923,2.9,0.407212144,5.983,66,17,14,0.84,female
11,1,3,3000,43,1,1,1,2940,4.458333333,2.275862069,Icecube tray,Kitchent Utensil,VESTUÁRIO,FALSE,0.5,0,healthy,-0.5,Old,4.458333333,-0.640328744,-1.515515785,2.28,-2.229166736,NA,-2.956812359,NA,-12.55817012,NA,66,17,14,0.84,female
11,1,2,2000,44,2,1,2,1454,4.791666667,2.517241379,Date,Fruit,FRUTO,aTRUE,-0.5,0,healthy,-0.5,Old,4.791666667,-0.394088802,-1.308037941,2.52,-1.627106745,0.602059991,2.032290624,5.05,-1.538787066,5.085,66,17,14,0.84,female
11,1,4,1500,45,1,1,1,4894,4.375,2.448275862,Pepper grinder,Kitchent Utensil,VEÍCULO,FALSE,0.5,0,healthy,-0.5,Old,4.375,-0.701888729,-1.368552312,2.45,-1.025046754,1.204119983,-2.956812359,NA,-12.55817012,NA,66,17,14,0.84,female
11,1,3,2500,46,2,1,2,1367,4.25,4.448275862,Cape,Clothing,VESTUÁRIO,aTRUE,-0.5,0,healthy,-0.5,Old,4.25,-0.794228707,0.360429717,4.45,0.675007632,2.904174368,-2.956812359,NA,-0.884341897,5.387,66,17,14,0.84,female
11,1,3,1500,47,2,1,2,1404,2.458333333,4.344827586,Apron,Clothing,VESTUÁRIO,aTRUE,-0.5,0,healthy,-0.5,Old,2.458333333,-2.117768393,0.265335706,4.34,-0.102061938,2.127104798,-2.956812359,NA,-1.296078924,5.197,66,17,14,0.84,female
11,1,4,3000,48,1,1,1,1890,5.916666667,2.655172414,Woodpecker,Birds,VEÍCULO,FALSE,0.5,0,healthy,-0.5,Old,5.916666667,0.436971001,-1.187009199,2.66,-0.814193388,1.414973348,-0.39804469,2.59,-12.55817012,NA,66,17,14,0.84,female
11,1,2,2500,49,2,1,2,1184,4.416666667,3.517241379,Lime,Fruit,FRUTO,aTRUE,-0.5,0,healthy,-0.5,Old,4.416666667,-0.671108736,-0.443546926,3.52,-0.011682792,2.217483944,0.767725908,3.77,-0.060867844,5.767,66,17,14,0.84,female
11,1,3,3000,50,1,1,1,1491,3.875,5.068965517,Onion,Vegetable,VESTUÁRIO,FALSE,0.5,0,healthy,-0.5,Old,3.875,-1.071248641,0.896414147,5.07,0.189134555,2.418301291,-0.467200573,2.52,-0.195224137,5.705,66,17,14,0.84,female
11,1,4,1500,51,2,1,2,1831,4.25,3.172413793,Wagon,Vehicles,VEÍCULO,aTRUE,-0.5,0,healthy,-0.5,Old,4.25,-0.794228707,-0.746118782,3.17,0.192437191,2.421603927,-0.042385864,2.95,0.847120652,6.186,66,17,14,0.84,female
11,1,4,3000,52,1,1,1,1299,3.291666667,5.034482759,Garlic,Vegetable,VEÍCULO,FALSE,0.5,0,healthy,-0.5,Old,3.291666667,-1.502168539,0.861834506,5.03,0.156439537,2.385606274,-0.249853513,2.74,0.665089545,6.102,66,17,14,0.84,female
11,1,2,1500,53,2,1,2,1235,6.625,4.275862069,Cantaloupe,Fruit,FRUTO,aTRUE,-0.5,0,healthy,-0.5,Old,6.625,0.960230877,0.213466245,4.28,-0.176088293,2.053078443,-0.536356456,2.45,1.256690642,6.375,66,17,14,0.84,female
11,1,3,3000,54,1,1,1,1796,5.958333333,3.75862069,Spatula,Kitchent Utensil,VESTUÁRIO,FALSE,0.5,0,healthy,-0.5,Old,5.958333333,0.467750993,-0.236069083,3.76,-0.513163393,1.716003344,-2.956812359,NA,-12.55817012,NA,66,17,14,0.84,female
11,1,4,1500,55,1,1,1,2067,2.166666667,3.724137931,Screwdriver,Weapon,VEÍCULO,FALSE,0.5,0,healthy,-0.5,Old,2.166666667,-2.333228342,-0.270648723,3.72,-2.229166736,NA,-2.956812359,NA,-12.55817012,NA,66,17,14,0.84,female
11,1,2,2500,56,1,1,1,1499,5.708333333,3.344827586,Can opener,Kitchent Utensil,FRUTO,FALSE,0.5,0,healthy,-0.5,Old,5.708333333,0.283071037,-0.599155309,3.34,-0.737805042,1.491361694,-2.956812359,NA,-12.55817012,NA,66,17,14,0.84,female
11,1,2,3000,57,2,1,2,1110,6.333333333,3.862068966,Blueberry,Fruit,FRUTO,aTRUE,-0.5,0,healthy,-0.5,Old,6.333333333,0.744770927,-0.149619981,3.86,-0.365843876,1.86332286,0.13544355,3.13,0.593577325,6.069,66,17,14,0.84,female
11,1,4,2000,60,2,1,2,3866,1.75,5.689655172,Lift,Vehicles,VEÍCULO,aTRUE,-0.5,0,healthy,-0.5,Old,1.75,-2.641028269,1.432398576,5.69,0.705836415,2.935003151,-0.220215277,2.77,0.329198813,5.947,66,17,14,0.84,female
11,1,4,1500,61,1,1,1,3194,5.791666667,4.793103448,Cork screw,Kitchent Utensil,VEÍCULO,FALSE,0.5,0,healthy,-0.5,Old,5.791666667,0.344631023,0.654356662,4.79,-0.504890867,1.72427587,-2.956812359,NA,-12.55817012,NA,66,17,14,0.84,female
11,1,2,2000,62,2,1,2,1138,6.52173913,3.103448276,Apricot,Fruit,FRUTO,aTRUE,-0.5,0,healthy,-0.5,Old,6.52173913,0.883950025,-0.806633153,3.1,-1.326076749,0.903089987,0.738087672,3.74,-1.54312114,5.083,66,17,14,0.84,female
11,1,1,2000,63,1,1,1,1617,1.75,4.517241379,Rock,Weapon,MAMÍFERO,FALSE,0.5,0,healthy,-0.5,Old,1.75,-2.641028269,0.420944088,4.52,0.509613822,2.738780558,-2.956812359,NA,0.480891402,6.017,66,17,14,0.84,female
11,1,1,3000,64,2,1,2,2057,6.208333333,2.965517241,Zebra,Mammals,MAMÍFERO,aTRUE,-0.5,0,healthy,-0.5,Old,6.208333333,0.652430949,-0.919016985,2.97,-0.251443131,1.977723605,-0.654909398,2.33,0.8557888,6.19,66,17,14,0.84,female
12,3,2,3000,1,2,1,2,1021,7,5,Peach,Fruit,FRUTO,aTRUE,-0.5,0,healthy,-0.5,Old,7,1.237250811,0.835899775,5,-0.047323148,2.181843588,-0.793221164,2.19,1.04215398,6.276,58,17,18,0.95,female
12,3,3,3000,3,2,1,2,1108,6.916666667,6.413793103,Jacket,Clothing,VESTUÁRIO,aTRUE,-0.5,0,healthy,-0.5,Old,6.916666667,1.175690826,2.054832106,6.41,0.987526863,3.216693599,-0.882135871,2.1,0.032314746,5.81,58,17,18,0.95,female
12,3,1,3000,4,1,1,1,3557,6.25,3.620689655,Oven mitts,Kitchent Utensil,MAMÍFERO,FALSE,0.5,0,healthy,-0.5,Old,6.25,0.683210942,-0.357097825,3.62,0.294579731,2.523746467,-2.956812359,NA,-12.55817012,NA,58,17,18,0.95,female
12,3,1,2000,5,2,1,2,906,4.833333333,3.482758621,Squirrel,Mammals,MAMÍFERO,aTRUE,-0.5,0,healthy,-0.5,Old,4.833333333,-0.36330881,-0.478126567,3.48,0.123015782,2.3521825180000002,0.095925902,3.09,1.154839904,6.328,58,17,18,0.95,female
12,3,4,2000,6,2,1,2,1620,2.666666667,2.75862069,Raft,Vehicles,VEÍCULO,aTRUE,-0.5,0,healthy,-0.5,Old,2.666666667,-1.963868429,-1.100560098,2.76,-0.422986762,1.806179974,0.99495238,4,-0.570121535,5.532,58,17,18,0.95,female
12,3,2,2000,7,1,1,1,1639,5.375,3,Goose,Birds,FRUTO,FALSE,0.5,0,healthy,-0.5,Old,5.375,0.036831096,-0.893082254,3,0.105287015,2.334453751,0.105805314,3.1,0.628249917,6.085,58,17,18,0.95,female
12,3,2,1500,8,2,1,2,1105,5.75,3.413793103,Coconut,Fruit,FRUTO,aTRUE,-0.5,0,healthy,-0.5,Old,5.75,0.31385103,-0.538640938,3.41,0.213313033,2.442479769,-0.803100576,2.18,-0.622130422,5.508,58,17,18,0.95,female
12,3,4,2000,10,1,1,1,1661,3.166666667,2.931034483,Slingshot,Weapon,VEÍCULO,FALSE,0.5,0,healthy,-0.5,Old,3.166666667,-1.594508517,-0.953596625,2.93,0.239180594,2.46834733,-2.956812359,NA,-12.55817012,NA,58,17,18,0.95,female
12,3,4,2000,11,2,1,2,865,6.666666667,4.931034483,Taxi,Vehicles,VEÍCULO,aTRUE,-0.5,0,healthy,-0.5,Old,6.666666667,0.99101087,0.775385404,4.93,0.845649704,3.074816441,0.056408255,3.05,1.154839904,6.328,58,17,18,0.95,female
12,3,2,1500,12,2,1,2,841,6.875,5.137931034,Strawberry,Fruit,FRUTO,aTRUE,-0.5,0,healthy,-0.5,Old,6.875,1.144910833,0.956928518,5.14,0.06968634,2.298853076,-1.178518226,1.8,0.87745917,6.2,58,17,18,0.95,female
12,3,2,2000,13,1,1,1,1224,6.75,6.379310345,Spoon,Kitchent Utensil,FRUTO,FALSE,0.5,0,healthy,-0.5,Old,6.75,1.052570855,2.028897376,6.38,0.490992567,2.720159303,-1.455141758,1.52,-0.017527104,5.787,58,17,18,0.95,female
12,3,3,1500,14,1,1,1,1361,6.666666667,6.517241379,Plate,Kitchent Utensil,VESTUÁRIO,FALSE,0.5,0,healthy,-0.5,Old,6.666666667,0.99101087,2.149926118,6.52,0.776013776,3.005180513,-1.356347639,1.62,0.665089545,6.102,58,17,18,0.95,female
12,3,1,3000,15,2,1,2,914,6.291666667,5.137931034,Cow,Mammals,MAMÍFERO,aTRUE,-0.5,0,healthy,-0.5,Old,6.291666667,0.713990935,0.956928518,5.14,0.817718455,3.046885191,-1.277312345,1.7,1.0139825,6.263,58,17,18,0.95,female
12,3,4,2500,16,2,1,2,2628,6.125,5.931034483,Train,Vehicles,VEÍCULO,aTRUE,-0.5,0,healthy,-0.5,Old,6.125,0.590870964,1.639876419,5.93,0.81966335,3.048830087,-1.30695058,1.67,1.471227303,6.474,58,17,18,0.95,female
12,3,3,2500,17,1,1,1,1451,5.833333333,2.275862069,Celery,Vegetable,VESTUÁRIO,FALSE,0.5,0,healthy,-0.5,Old,5.833333333,0.375411015,-1.515515785,2.28,-0.52159656,1.707570176,2.457105334,5.48,-2.418604081,4.679,58,17,18,0.95,female
12,3,3,2500,18,1,1,1,1265,6.291666667,2.931034483,Cannon,Weapon,VESTUÁRIO,FALSE,0.5,0,healthy,-0.5,Old,6.291666667,0.713990935,-0.953596625,2.93,0.278689136,2.507855872,0.99495238,4,0.227348075,5.9,58,17,18,0.95,female
12,3,2,2500,19,2,1,2,1230,6.541666667,5.068965517,Pineapple,Fruit,FRUTO,aTRUE,-0.5,0,healthy,-0.5,Old,6.541666667,0.898670891,0.896414147,5.07,-0.342676011,1.886490725,-0.55611528,2.43,-0.871339675,5.393,58,17,18,0.95,female
12,3,4,2000,20,1,1,1,1443,5.681818182,3.551724138,Zucchini,Vegetable,VEÍCULO,FALSE,0.5,0,healthy,-0.5,Old,5.681818182,0.263483769,-0.417612196,3.55,-2.229166736,NA,-2.956812359,NA,-12.55817012,NA,58,17,18,0.95,female
12,3,1,3000,21,1,1,1,1614,6.208333333,3.655172414,Bomb,Weapon,MAMÍFERO,FALSE,0.5,0,healthy,-0.5,Old,6.208333333,0.652430949,-0.322518184,3.66,0.981953805,3.211120541,-2.956812359,NA,0.6975951,6.117,58,17,18,0.95,female
12,3,1,1500,22,2,1,2,1373,5.833333333,3.448275862,Leopard,Mammals,MAMÍFERO,aTRUE,-0.5,0,healthy,-0.5,Old,5.833333333,0.375411015,-0.504061297,3.45,-0.121956767,2.10720997,0.392308258,3.39,1.453891007,6.466,58,17,18,0.95,female
12,3,2,2000,23,2,1,2,1087,4.916666667,5.103448276,Lemon,Fruit,FRUTO,aTRUE,-0.5,0,healthy,-0.5,Old,4.916666667,-0.301748824,0.922348877,5.1,0.322283262,2.551449998,-1.079724108,1.9,0.920799909,6.22,58,17,18,0.95,female
12,3,2,2500,24,1,1,1,1442,4.083333333,3.137931034,Poison,Weapon,FRUTO,FALSE,0.5,0,healthy,-0.5,Old,4.083333333,-0.917348678,-0.772053512,3.14,0.71432778,2.943494516,-2.956812359,NA,-2.596301114,4.597,58,17,18,0.95,female
12,3,3,1500,25,2,1,2,2375,4.666666667,6.034482759,Boots,Clothing,VESTUÁRIO,aTRUE,-0.5,0,healthy,-0.5,Old,4.666666667,-0.48642878,1.726325521,6.03,0.747641601,2.976808337,-1.326709404,1.65,-0.656803014,5.492,58,17,18,0.95,female
12,3,1,2000,26,1,1,1,1273,5.666666667,3.137931034,Asparagus,Vegetable,MAMÍFERO,FALSE,0.5,0,healthy,-0.5,Old,5.666666667,0.252291045,-0.772053512,3.14,-0.886744055,1.342422681,2.358311215,5.38,-1.796664467,4.966,58,17,18,0.95,female
12,3,4,1500,27,2,1,2,1780,5.333333333,3.344827586,Tractor,Vehicles,VEÍCULO,aTRUE,-0.5,0,healthy,-0.5,Old,5.333333333,0.006051103,-0.599155309,3.34,-0.168468896,2.06069784,0.263875904,3.26,0.203510668,5.889,58,17,18,0.95,female
12,3,2,2000,29,1,1,1,1242,5.166666667,2.827586207,Spear,Weapon,FRUTO,FALSE,0.5,0,healthy,-0.5,Old,5.166666667,-0.117068868,-1.040045727,2.83,0.479254164,2.7084209,1.380249442,4.39,-1.547455214,5.081,58,17,18,0.95,female
12,3,3,3000,30,2,1,2,1770,4.416666667,4.965517241,Scarf,Clothing,VESTUÁRIO,aTRUE,-0.5,0,healthy,-0.5,Old,4.416666667,-0.671108736,0.809965045,4.97,-0.125363015,2.103803721,-0.170818218,2.82,-0.169219693,5.717,58,17,18,0.95,female
12,3,3,2000,32,2,1,2,1304,4.875,4.517241379,Leotards,Clothing,VESTUÁRIO,aTRUE,-0.5,0,healthy,-0.5,Old,4.875,-0.332528817,0.420944088,4.52,-0.29974781,1.929418926,-2.956812359,NA,-12.55817012,NA,58,17,18,0.95,female
12,3,1,1500,33,1,1,1,1244,4.75,4.689655172,Bean,Vegetable,MAMÍFERO,FALSE,0.5,0,healthy,-0.5,Old,4.75,-0.424868795,0.567907561,4.69,0.239180594,2.46834733,-0.28937116,2.7,-0.656803014,5.492,58,17,18,0.95,female
12,3,1,3000,34,1,1,1,1550,4.125,2.724137931,Pepper spray,Weapon,MAMÍFERO,FALSE,0.5,0,healthy,-0.5,Old,4.125,-0.886568685,-1.135139738,2.72,-2.229166736,NA,-2.956812359,NA,-12.55817012,NA,58,17,18,0.95,female
12,3,4,1500,36,1,1,1,1151,4.833333333,3,Ostrich,Birds,VEÍCULO,FALSE,0.5,0,healthy,-0.5,Old,4.833333333,-0.36330881,-0.893082254,3,-0.451015486,1.77815125,0.382428846,3.38,1.280528049,6.386,58,17,18,0.95,female
12,3,1,3000,37,2,1,2,1367,5.608695652,2.724137931,Cougar,Mammals,MAMÍFERO,aTRUE,-0.5,0,healthy,-0.5,Old,5.608695652,0.209466707,-1.135139738,2.72,-0.41625338,1.812913357,-2.956812359,NA,-12.55817012,NA,58,17,18,0.95,female
12,3,1,2500,38,2,1,2,1002,5.458333333,3.482758621,Camel,Mammals,MAMÍFERO,aTRUE,-0.5,0,healthy,-0.5,Old,5.458333333,0.098391081,-0.478126567,3.48,0.06529949,2.294466226,-0.279491748,2.71,0.667256582,6.103,58,17,18,0.95,female
12,3,3,2000,39,2,1,2,1214,3.5,3.068965517,Shawl,Clothing,VESTUÁRIO,aTRUE,-0.5,0,healthy,-0.5,Old,3.5,-1.348268576,-0.832567883,3.07,-0.710652796,1.51851394,-2.956812359,NA,-12.55817012,NA,58,17,18,0.95,female
12,3,4,2500,40,1,1,1,1413,6.375,5.344827586,Mixing bowl,Kitchent Utensil,VEÍCULO,FALSE,0.5,0,healthy,-0.5,Old,6.375,0.77555092,1.12982672,5.34,0.109289757,2.338456494,-0.66478881,2.32,1.295697307,6.393,58,17,18,0.95,female
12,3,4,2500,41,1,1,1,1519,4.166666667,4.172413793,Parsley,Vegetable,VEÍCULO,FALSE,0.5,0,healthy,-0.5,Old,4.166666667,-0.855788692,0.118372233,4.17,0.249399759,2.478566496,0.827002379,3.83,0.181840298,5.879,58,17,18,0.95,female
12,3,2,2500,42,2,1,2,1262,6.291666667,3.793103448,Raspberry,Fruit,FRUTO,aTRUE,-0.5,0,healthy,-0.5,Old,6.291666667,0.713990935,-0.210134352,3.79,-0.265378909,1.963787827,-2.956812359,NA,-12.55817012,NA,58,17,18,0.95,female
12,3,3,1500,43,1,1,1,1072,5.083333333,3.413793103,Funnel,Kitchent Utensil,VESTUÁRIO,FALSE,0.5,0,healthy,-0.5,Old,5.083333333,-0.178628853,-0.538640938,3.41,-0.566408904,1.662757832,-0.091782923,2.9,-1.447771513,5.127,58,17,18,0.95,female
12,3,3,3000,44,1,1,1,1614,5.166666667,2.344827586,Pelican,Birds,VESTUÁRIO,FALSE,0.5,0,healthy,-0.5,Old,5.166666667,-0.117068868,-1.463646324,2.34,-0.752045481,1.477121255,1.854461211,4.87,-1.579960769,5.066,58,17,18,0.95,female
12,3,1,1500,45,2,1,2,884,3.958333333,3.275862069,Bat,Mammals,MAMÍFERO,aTRUE,-0.5,0,healthy,-0.5,Old,3.958333333,-1.009688656,-0.65102477,3.28,0.063089335,2.292256071,0.431825905,3.43,0.301027332,5.934,58,17,18,0.95,female
12,3,1,2000,47,2,1,2,1107,6.375,4.275862069,Horse,Mammals,MAMÍFERO,aTRUE,-0.5,0,healthy,-0.5,Old,6.375,0.77555092,0.213466245,4.28,0.991725513,3.220892249,-1.277312345,1.7,0.743102877,6.138,58,17,18,0.95,female
12,3,4,2500,48,1,1,1,1383,6.25,6.413793103,Knife,Weapon,VEÍCULO,FALSE,0.5,0,healthy,-0.5,Old,6.25,0.683210942,2.054832106,6.41,0.948658236,3.177824972,-1.020447637,1.96,0.515563994,6.033,58,17,18,0.95,female
12,3,4,3000,49,2,1,2,1510,4.416666667,3.24137931,Yatch,Vehicles,VEÍCULO,aTRUE,-0.5,0,healthy,-0.5,Old,4.416666667,-0.671108736,-0.685604411,3.24,0.047295068,2.276461804,2.249637685,5.27,0.552403622,6.05,58,17,18,0.95,female
12,3,1,2000,50,1,1,1,1084,5.541666667,3.034482759,Kettle,Kitchent Utensil,MAMÍFERO,FALSE,0.5,0,healthy,-0.5,Old,5.541666667,0.159951067,-0.867147524,3.03,-0.326076749,1.903089987,1.2616965,4.27,-0.622130422,5.508,58,17,18,0.95,female
12,3,2,2000,51,1,1,1,1544,5.1,2.034482759,Pie pan,Kitchent Utensil,FRUTO,FALSE,0.5,0,healthy,-0.5,Old,5.1,-0.166316856,-1.731638538,2.03,-2.229166736,NA,-2.956812359,NA,-12.55817012,NA,58,17,18,0.95,female
12,3,2,1500,52,1,1,1,1792,4.666666667,5.689655172,Potato,Vegetable,FRUTO,FALSE,0.5,0,healthy,-0.5,Old,4.666666667,-0.48642878,1.432398576,5.69,0.429798106,2.658964843,-1.109362343,1.87,-0.51594561,5.557,58,17,18,0.95,female
12,3,3,3000,53,2,1,2,1808,3.173913043,3.517241379,Cloak,Clothing,VESTUÁRIO,aTRUE,-0.5,0,healthy,-0.5,Old,3.173913043,-1.589155475,-0.443546926,3.52,0.021253266,2.250420002,-2.956812359,NA,-12.55817012,NA,58,17,18,0.95,female
12,3,2,3000,54,1,1,1,1224,6.75,2.75862069,Falcon,Birds,FRUTO,FALSE,0.5,0,healthy,-0.5,Old,6.75,1.052570855,-1.100560098,2.76,0.028511839,2.257678575,1.350611207,4.36,-0.604794126,5.516,58,17,18,0.95,female
12,3,1,2500,55,2,1,2,749,6.625,4.275862069,Lion,Mammals,MAMÍFERO,aTRUE,-0.5,0,healthy,-0.5,Old,6.625,0.960230877,0.213466245,4.28,0.433591096,2.662757832,-1.109362343,1.87,-0.394591539,5.613,58,17,18,0.95,female
12,3,3,2500,56,1,1,1,1133,4.375,4.103448276,Chickpeas,Vegetable,VESTUÁRIO,FALSE,0.5,0,healthy,-0.5,Old,4.375,-0.701888729,0.057857862,4.1,0.084700484,2.31386722,-0.081903511,2.91,-0.097707473,5.75,58,17,18,0.95,female
12,3,3,1500,57,1,1,1,1305,3.25,2.965517241,Whip,Weapon,VESTUÁRIO,FALSE,0.5,0,healthy,-0.5,Old,3.25,-1.532948532,-0.919016985,2.97,0.080463431,2.309630167,0.99495238,4,0.985811019,6.25,58,17,18,0.95,female
12,3,2,2000,58,2,1,2,864,6.791666667,3.965517241,Plum,Fruit,FRUTO,aTRUE,-0.5,0,healthy,-0.5,Old,6.791666667,1.083350848,-0.05452597,3.97,-0.315352884,1.913813852,-0.18069763,2.81,0.840619541,6.183,58,17,18,0.95,female
12,3,2,1500,59,2,1,2,681,2.625,4.620689655,Olive,Fruit,FRUTO,aTRUE,-0.5,0,healthy,-0.5,Old,2.625,-1.994648422,0.50739319,4.62,-0.443836901,1.785329835,0.007011196,3,1.527570265,6.5,58,17,18,0.95,female
12,3,4,1500,61,2,1,2,1597,6.708333333,6.206896552,Bus,Vehicles,VEÍCULO,aTRUE,-0.5,0,healthy,-0.5,Old,6.708333333,1.021790862,1.881933903,6.21,0.782826378,3.011993115,0.13544355,3.13,1.341205084,6.414,58,17,18,0.95,female
12,3,3,3000,62,1,1,1,1350,6.708333333,3.965517241,Seagull,Birds,VESTUÁRIO,FALSE,0.5,0,healthy,-0.5,Old,6.708333333,1.021790862,-0.05452597,3.97,-0.504890867,1.72427587,-0.081903511,2.91,0.515563994,6.033,58,17,18,0.95,female
12,3,3,2500,63,2,1,2,1339,6.75,5.310344828,Skirt,Clothing,VESTUÁRIO,aTRUE,-0.5,0,healthy,-0.5,Old,6.75,1.052570855,1.10389199,5.31,1.291709646,3.520876382,-0.980929989,2,0.623915843,6.083,58,17,18,0.95,female
12,3,4,2500,64,1,1,1,1324,6.375,3.620689655,Canary,Birds,VEÍCULO,FALSE,0.5,0,healthy,-0.5,Old,6.375,0.77555092,-0.357097825,3.62,-0.37183424,1.857332496,0.194720021,3.19,0.593577325,6.069,58,17,18,0.95,female
12,2,3,2500,1,2,1,2,1452,6.958333333,6.551724138,Pants,Clothing,VESTUÁRIO,aTRUE,-0.5,0,healthy,-0.5,Old,6.958333333,1.206470818,2.175860848,6.55,0.997433169,3.226599905,-1.237794697,1.74,2.06932951,6.75,58,17,18,0.95,female
12,2,2,2500,2,1,1,1,1131,4.083333333,5.172413793,Scissors,Kitchent Utensil,FRUTO,FALSE,0.5,0,healthy,-0.5,Old,4.083333333,-0.917348678,0.982863248,5.17,0.140049121,2.369215857,-0.378285867,2.61,0.883960281,6.203,58,17,18,0.95,female
12,2,1,2500,3,2,1,2,1050,4.75,3.344827586,Otter,Mammals,MAMÍFERO,aTRUE,-0.5,0,healthy,-0.5,Old,4.75,-0.424868795,-0.599155309,3.34,-0.766768738,1.462397998,1.083867087,4.09,0.333532887,5.949,58,17,18,0.95,female
12,2,4,3000,4,2,1,2,1103,6.833333333,4.448275862,Jeep,Vehicles,VEÍCULO,aTRUE,-0.5,0,healthy,-0.5,Old,6.833333333,1.11413084,0.360429717,4.45,0.143745267,2.372912003,0.145322961,3.14,0.701929174,6.119,58,17,18,0.95,female
12,2,4,2000,5,1,1,1,1226,6.565217391,2.551724138,Bazooka,Weapon,VEÍCULO,FALSE,0.5,0,healthy,-0.5,Old,6.565217391,0.916068278,-1.282103211,2.55,-0.496772976,1.73239376,-2.956812359,NA,-12.55817012,NA,58,17,18,0.95,female
12,2,3,1500,6,2,1,2,783,5.333333333,6.172413793,Pajama,Clothing,VESTUÁRIO,aTRUE,-0.5,0,healthy,-0.5,Old,5.333333333,0.006051103,1.847354263,6.17,0.314901308,2.544068044,-0.892015283,2.09,-0.037030437,5.778,58,17,18,0.95,female
12,2,2,2000,7,1,1,1,1200,6.875,5.344827586,Pot,Kitchent Utensil,FRUTO,FALSE,0.5,0,healthy,-0.5,Old,6.875,1.144910833,1.12982672,5.34,-0.605917446,1.62324929,-0.319009395,2.67,0.190508446,5.883,58,17,18,0.95,female
12,2,2,2000,8,2,1,2,822,7,5.482758621,Orange,Fruit,FRUTO,aTRUE,-0.5,0,healthy,-0.5,Old,7,1.237250811,1.250855463,5.48,0.566017854,2.79518459,-1.148879991,1.83,1.26535879,6.379,58,17,18,0.95,female
12,2,3,3000,9,1,1,1,1139,6.833333333,5.344827586,Frying pan,Kitchent Utensil,VESTUÁRIO,FALSE,0.5,0,healthy,-0.5,Old,6.833333333,1.11413084,1.12982672,5.34,-0.157284729,2.071882007,0.24411708,3.24,-0.706644865,5.469,58,17,18,0.95,female
12,2,1,2000,10,2,1,2,1142,6.541666667,3.586206897,Gorilla,Mammals,MAMÍFERO,aTRUE,-0.5,0,healthy,-0.5,Old,6.541666667,0.898670891,-0.383032555,3.59,0.101247037,2.330413773,-0.279491748,2.71,-0.693642643,5.475,58,17,18,0.95,female
12,2,4,2500,11,2,1,2,1110,6.708333333,4.655172414,Truck,Vehicles,VEÍCULO,aTRUE,-0.5,0,healthy,-0.5,Old,6.708333333,1.021790862,0.54197283,4.66,0.652217921,2.881384657,-0.803100576,2.18,-0.743484493,5.452,58,17,18,0.95,female
12,2,4,1500,12,1,1,1,1172,6.791666667,6.344827586,Fork,Kitchent Utensil,VEÍCULO,FALSE,0.5,0,healthy,-0.5,Old,6.791666667,1.083350848,1.994317735,6.34,0.078329302,2.307496038,-1.020447637,1.96,-1.972194463,4.885,58,17,18,0.95,female
12,2,2,3000,13,2,1,2,892,6.916666667,5.586206897,Banana,Fruit,FRUTO,aTRUE,-0.5,0,healthy,-0.5,Old,6.916666667,1.175690826,1.345949474,5.59,0.41428594,2.643452676,-1.148879991,1.83,1.252356568,6.373,58,17,18,0.95,female
12,2,2,3000,14,1,1,1,1330,6.583333333,3.793103448,Cauliflower,Vegetable,FRUTO,FALSE,0.5,0,healthy,-0.5,Old,6.583333333,0.929450884,-0.210134352,3.79,-0.782008705,1.447158031,0.668931789,3.67,-12.55817012,NA,58,17,18,0.95,female
12,2,3,1500,15,1,1,1,1114,6.625,3.068965517,Grenade,Weapon,VESTUÁRIO,FALSE,0.5,0,healthy,-0.5,Old,6.625,0.960230877,-0.832567883,3.07,0.33785963,2.567026366,1.755667092,4.77,-0.407593761,5.607,58,17,18,0.95,female
12,2,1,1500,16,2,1,2,1036,5.666666667,2.965517241,Buffalo,Mammals,MAMÍFERO,aTRUE,-0.5,0,healthy,-0.5,Old,5.666666667,0.252291045,-0.919016985,2.97,-0.115223384,2.113943352,1.083867087,4.09,-0.44443339,5.59,58,17,18,0.95,female
12,2,2,3000,18,1,1,1,924,6.625,4.068965517,Pistol,Weapon,FRUTO,FALSE,0.5,0,healthy,-0.5,Old,6.625,0.960230877,0.031923132,4.07,0.793673875,3.022840611,-0.506718221,2.48,0.628249917,6.085,58,17,18,0.95,female
12,2,4,1500,19,1,1,1,1461,6.208333333,4.793103448,Peas,Vegetable,VEÍCULO,FALSE,0.5,0,healthy,-0.5,Old,6.208333333,0.652430949,0.654356662,4.79,-0.0830387,2.146128036,-0.368406455,2.62,-12.55817012,NA,58,17,18,0.95,female
12,2,3,2000,20,2,1,2,1720,5.583333333,6.137931034,Socks,Clothing,VESTUÁRIO,aTRUE,-0.5,0,healthy,-0.5,Old,5.583333333,0.190731059,1.821419532,6.14,0.63057183000000006,2.859738566,-1.474900582,1.5,0.628249917,6.085,58,17,18,0.95,female
12,2,3,3000,21,1,1,1,1040,6.208333333,5.517241379,Lettuce,Vegetable,VESTUÁRIO,FALSE,0.5,0,healthy,-0.5,Old,6.208333333,0.652430949,1.285435103,5.52,-0.142806905,2.086359831,-0.279491748,2.71,-0.037030437,5.778,58,17,18,0.95,female
12,2,2,2500,22,2,1,2,745,6.833333333,5,Grape,Fruit,FRUTO,aTRUE,-0.5,0,healthy,-0.5,Old,6.833333333,1.11413084,0.835899775,5,0.049586865,2.278753601,-1.079724108,1.9,-12.55817012,NA,58,17,18,0.95,female
12,2,1,2500,23,1,1,1,1010,5.875,4.275862069,Cucumber,Vegetable,MAMÍFERO,FALSE,0.5,0,healthy,-0.5,Old,5.875,0.406191008,0.213466245,4.28,-0.08928765,2.139879086,0.333031786,3.33,-0.325246356,5.645,58,17,18,0.95,female
12,2,1,1500,24,1,1,1,1445,6.458333333,4.103448276,Sword,Weapon,MAMÍFERO,FALSE,0.5,0,healthy,-0.5,Old,6.458333333,0.837110906,0.057857862,4.1,0.73838124,2.967547976,-0.170818218,2.82,0.810281023,6.169,58,17,18,0.95,female
12,2,4,3000,26,1,1,1,1882,6.166666667,3.034482759,Raven,Birds,VEÍCULO,FALSE,0.5,0,healthy,-0.5,Old,6.166666667,0.621650957,-0.867147524,3.03,-0.079947624,2.149219113,0.431825905,3.43,-0.026195252,5.783,58,17,18,0.95,female
12,2,4,2500,27,2,1,2,1130,5.75,6.655172414,Subway,Vehicles,VEÍCULO,aTRUE,-0.5,0,healthy,-0.5,Old,5.75,0.31385103,2.27095486,6.66,0.716301849,2.945468585,1.212299441,4.22,-1.001361894,5.333,58,17,18,0.95,female
12,2,1,2500,28,2,1,2,1052,5.958333333,4.689655172,Rabbit,Mammals,MAMÍFERO,aTRUE,-0.5,0,healthy,-0.5,Old,5.958333333,0.467750993,0.567907561,4.69,0.504030529,2.733197265,-1.277312345,1.7,-0.463936723,5.581,58,17,18,0.95,female
12,2,2,2500,30,2,1,2,1381,6.375,4.482758621,Kiwi,Fruit,FRUTO,aTRUE,-0.5,0,healthy,-0.5,Old,6.375,0.77555092,0.386364448,4.48,-0.724016758,1.505149978,0.738087672,3.74,-0.10637562,5.746,58,17,18,0.95,female
12,2,4,3000,31,2,1,2,1056,5.458333333,4.931034483,Bicycle,Vehicles,VEÍCULO,aTRUE,-0.5,0,healthy,-0.5,Old,5.458333333,0.098391081,0.775385404,4.93,0.722656299,2.951823035,-1.069844696,1.91,0.727933618,6.131,58,17,18,0.95,female
12,2,1,2500,32,1,1,1,1248,6.166666667,2.862068966,Partridge,Birds,MAMÍFERO,FALSE,0.5,0,healthy,-0.5,Old,6.166666667,0.621650957,-1.014110996,2.86,-0.737805042,1.491361694,1.37037003,4.38,-1.79449743,4.967,58,17,18,0.95,female
12,2,1,1500,33,1,1,1,2461,5.333333333,5.103448276,Tomato,Vegetable,MAMÍFERO,FALSE,0.5,0,healthy,-0.5,Old,5.333333333,0.006051103,0.922348877,5.1,0.364119331,2.593286067,-0.684547634,2.3,-0.463936723,5.581,58,17,18,0.95,female
12,2,2,2000,34,2,1,2,1657,6.333333333,3.586206897,Medlar,Fruit,FRUTO,aTRUE,-0.5,0,healthy,-0.5,Old,6.333333333,0.744770927,-0.383032555,3.59,-2.229166736,0,-2.956812359,NA,-12.55817012,NA,58,17,18,0.95,female
12,2,4,3000,35,1,1,1,1213,5.416666667,3.068965517,Beetroot,Vegetable,VEÍCULO,FALSE,0.5,0,healthy,-0.5,Old,5.416666667,0.067611089,-0.832567883,3.07,-0.595698281,1.633468456,1.488922973,4.5,-1.339419664,5.177,58,17,18,0.95,female
12,2,4,2500,36,1,1,1,1185,5.041666667,2.75862069,Stick,Weapon,VEÍCULO,FALSE,0.5,0,healthy,-0.5,Old,5.041666667,-0.209408846,-1.100560098,2.76,0.185806612,2.414973348,2.150843566,5.17,-2.930024809,4.443,58,17,18,0.95,female
12,2,1,1500,37,2,1,2,4190,4.916666667,3.275862069,Seal,Mammals,MAMÍFERO,aTRUE,-0.5,0,healthy,-0.5,Old,4.916666667,-0.301748824,-0.65102477,3.28,-0.118577026,2.11058971,-0.635150575,2.35,-0.570121535,5.532,58,17,18,0.95,female
12,2,3,2000,38,2,1,2,1237,3.916666667,4.034482759,Cap,Clothing,VESTUÁRIO,aTRUE,-0.5,0,healthy,-0.5,Old,3.916666667,-1.040468649,-0.002656509,4.03,0.151044506,2.380211242,-0.93153293,2.05,0.920799909,6.22,58,17,18,0.95,female
12,2,1,2000,39,2,1,2,1396,6.166666667,4,Dolphin,Mammals,MAMÍFERO,aTRUE,-0.5,0,healthy,-0.5,Old,6.166666667,0.621650957,-0.028591239,4,-0.246895503,1.982271233,-0.210335865,2.78,1.274026938,6.383,58,17,18,0.95,female
12,2,1,2500,40,1,1,1,1182,5.041666667,3.034482759,Tank,Weapon,MAMÍFERO,FALSE,0.5,0,healthy,-0.5,Old,5.041666667,-0.209408846,-0.867147524,3.03,0.622702865,2.851869601,-2.956812359,NA,-1.289577813,5.2,58,17,18,0.95,female
12,2,3,1500,41,2,1,2,1109,4.208333333,4.344827586,Tie,Clothing,VESTUÁRIO,aTRUE,-0.5,0,healthy,-0.5,Old,4.208333333,-0.8250087,0.265335706,4.34,0.540948559,2.770115295,0.392308258,3.39,-0.498609314,5.565,58,17,18,0.95,female
12,2,3,1500,42,1,1,1,1055,6.25,4.310344828,Pigeon,Birds,VESTUÁRIO,FALSE,0.5,0,healthy,-0.5,Old,6.25,0.683210942,0.239400975,4.31,-0.203860871,2.025305865,-0.793221164,2.19,0.480891402,6.017,58,17,18,0.95,female
12,2,2,1500,43,1,1,1,1203,4.875,3.137931034,Axe,Weapon,FRUTO,FALSE,0.5,0,healthy,-0.5,Old,4.875,-0.332528817,-0.772053512,3.14,0.319836526,2.549003262,0.194720021,3.19,-0.206059322,5.7,58,17,18,0.95,female
12,2,2,1500,44,2,1,2,1074,5.958333333,2.793103448,Grapefruit,Fruit,FRUTO,aTRUE,-0.5,0,healthy,-0.5,Old,5.958333333,0.467750993,-1.074625367,2.79,-0.616382879,1.612783857,1.2616965,4.27,-1.72298521,5,58,17,18,0.95,female
12,2,3,2500,45,1,1,1,1272,5,4,Pumpkin,Vegetable,VESTUÁRIO,FALSE,0.5,0,healthy,-0.5,Old,5,-0.240188839,-0.028591239,4,0.016345932,2.245512668,0.698570025,3.7,-0.097707473,5.75,58,17,18,0.95,female
12,2,3,1500,46,1,1,1,1138,4.166666667,2.620689655,Tear gass,Weapon,VESTUÁRIO,FALSE,0.5,0,healthy,-0.5,Old,4.166666667,-0.855788692,-1.22158884,2.62,-2.229166736,NA,-2.956812359,NA,-12.55817012,NA,58,17,18,0.95,female
12,2,4,2000,47,2,1,2,1835,2.75,3.379310345,Canoe,Vehicles,VEÍCULO,aTRUE,-0.5,0,healthy,-0.5,Old,2.75,-1.902308444,-0.564575668,3.38,-0.146381366,2.08278537,0.708449437,3.71,0.149334744,5.864,58,17,18,0.95,female
12,2,4,2500,48,1,1,1,1100,5.375,2.517241379,Flamingo,Birds,VEÍCULO,FALSE,0.5,0,healthy,-0.5,Old,5.375,0.036831096,-1.308037941,2.52,-0.660965012,1.568201724,1.37037003,4.38,-0.385923391,5.617,58,17,18,0.95,female
12,2,2,3000,49,2,1,2,1273,4.75,2.896551724,Avocado,Fruit,FRUTO,aTRUE,-0.5,0,healthy,-0.5,Old,4.75,-0.424868795,-0.979531356,2.9,-0.575954222,1.653212514,1.982893565,5,-0.849669306,5.403,58,17,18,0.95,female
12,2,3,1500,50,2,1,2,1018,3.416666667,5.379310345,Belt,Clothing,VESTUÁRIO,aTRUE,-0.5,0,healthy,-0.5,Old,3.416666667,-1.409828561,1.164406361,5.38,0.685176421,2.914343157,-0.763582929,2.22,0.743102877,6.138,58,17,18,0.95,female
12,2,3,2000,51,1,1,1,1230,5.416666667,4.275862069,Duck,Birds,VESTUÁRIO,FALSE,0.5,0,healthy,-0.5,Old,5.416666667,0.067611089,0.213466245,4.28,0.406317011,2.635483747,-1.267432933,1.71,0.738768803,6.136,58,17,18,0.95,female
12,2,2,3000,52,1,1,1,1315,5.958333333,4.448275862,Chicken,Birds,FRUTO,FALSE,0.5,0,healthy,-0.5,Old,5.958333333,0.467750993,0.360429717,4.45,0.723625707,2.952792443,-0.852497635,2.13,1.414884341,6.448,58,17,18,0.95,female
12,2,1,2000,53,1,1,1,3269,5.708333333,2.103448276,Pheasant,Birds,MAMÍFERO,FALSE,0.5,0,healthy,-0.5,Old,5.708333333,0.283071037,-1.671124167,2.1,-0.627106745,1.602059991,1.627234738,4.64,-2.444608525,4.667,58,17,18,0.95,female
12,2,1,3000,54,2,1,2,981,5.083333333,4.689655172,Mouse,Mammals,MAMÍFERO,aTRUE,-0.5,0,healthy,-0.5,Old,5.083333333,-0.178628853,0.567907561,4.69,0.957507131,3.186673867,-1.208156462,1.77,0.654254361,6.097,58,17,18,0.95,female
12,2,2,1500,56,1,1,1,1392,5.541666667,2.551724138,Vulture,Birds,FRUTO,FALSE,0.5,0,healthy,-0.5,Old,5.541666667,0.159951067,-1.282103211,2.55,-0.274924227,1.954242509,1.745787681,4.76,0.257686593,5.914,58,17,18,0.95,female
12,2,1,1000,57,1,1,1,1160,6.625,4.862068966,Ladle,Kitchent Utensil,MAMÍFERO,FALSE,0.5,0,healthy,-0.5,Old,6.625,0.960230877,0.714871033,4.86,-2.229166736,NA,-2.956812359,NA,0.554570659,6.051,58,17,18,0.95,female
12,2,4,2500,59,2,1,2,1232,2.375,2.827586207,Sled,Vehicles,VEÍCULO,aTRUE,-0.5,0,healthy,-0.5,Old,2.375,-2.179328379,-1.040045727,2.83,-0.102061938,2.127104798,-0.081903511,2.91,-0.780324122,5.435,58,17,18,0.95,female
12,2,3,3000,60,1,1,1,1777,3.958333333,3.551724138,Timer,Kitchent Utensil,VESTUÁRIO,FALSE,0.5,0,healthy,-0.5,Old,3.958333333,-1.009688656,-0.417612196,3.55,-0.30488745,1.924279286,-2.956812359,NA,-12.55817012,NA,58,17,18,0.95,female
12,2,2,1500,61,2,1,2,1216,3.869565217,2.965517241,Cherry,Fruit,FRUTO,aTRUE,-0.5,0,healthy,-0.5,Old,3.869565217,-1.075263423,-0.919016985,2.97,-1.326076749,0.903089987,1.083867087,4.09,-1.985196685,4.879,58,17,18,0.95,female
12,2,4,2000,62,1,1,1,1019,3.956521739,2.620689655,Skewer,Kitchent Utensil,FRUTO,FALSE,0.5,0,healthy,-0.5,Old,3.956521739,-1.011026917,-1.22158884,2.62,-0.079947624,2.149219113,-2.956812359,NA,-12.55817012,NA,58,17,18,0.95,female
12,2,1,3000,64,1,1,1,1017,2.833333333,5,Broom,Kitchent Utensil,MAMÍFERO,FALSE,0.5,0,healthy,-0.5,Old,2.833333333,-1.840748459,0.835899775,5,0.035651087,2.264817823,-0.743824105,2.24,0.515563994,6.033,58,17,18,0.95,female
12,1,1,1500,1,2,1,2,1181,6.75,6.172413793,Dog,Mammals,MAMÍFERO,aTRUE,-0.5,0,healthy,-0.5,Old,6.75,1.052570855,1.847354263,6.17,1.119721987,3.348888723,-1.672488819,1.3,0.732267692,6.133,58,17,18,0.95,female
12,1,4,3000,2,2,1,2,1104,7,6.620689655,Car,Vehicles,VEÍCULO,aTRUE,-0.5,0,healthy,-0.5,Old,7,1.237250811,2.236375219,6.62,1.47652596,3.705692697,-1.218035874,1.76,-0.49427524,5.567,58,17,18,0.95,female
12,1,3,2500,3,2,1,2,975,4.541666667,4.517241379,Robe,Clothing,VESTUÁRIO,aTRUE,-0.5,0,healthy,-0.5,Old,4.541666667,-0.578768758,0.420944088,4.52,0.030904652,2.260071388,-2.956812359,NA,-0.026195252,5.783,58,17,18,0.95,female
12,1,1,1500,4,1,1,1,1383,6.958333333,4.24137931,Broccoli,Vegetable,MAMÍFERO,FALSE,0.5,0,healthy,-0.5,Old,6.958333333,1.206470818,0.178886604,4.24,-0.64938314,1.579783597,0.906037674,3.91,0.368205479,5.965,58,17,18,0.95,female
12,1,1,2500,5,1,1,1,1744,6.958333333,3.482758621,Machine gun,Weapon,MAMÍFERO,FALSE,0.5,0,healthy,-0.5,Old,6.958333333,1.206470818,-0.478126567,3.48,0.06529949,2.294466226,0.856640614,3.86,0.370372516,5.966,58,17,18,0.95,female
12,1,4,1500,6,2,1,2,1002,5.958333333,5.413793103,Airplane,Vehicles,VEÍCULO,aTRUE,-0.5,0,healthy,-0.5,Old,5.958333333,0.467750993,1.190341092,5.41,1.050500208,3.279666944,-1.583574112,1.39,1.102831016,6.304,58,17,18,0.95,female
12,1,2,3000,7,2,1,2,907,7,5.827586207,Apple,Fruit,FRUTO,aTRUE,-0.5,0,healthy,-0.5,Old,7,1.237250811,1.553427318,5.83,0.490164551,2.719331287,-1.544056464,1.43,1.68142989,6.571,58,17,18,0.95,female
12,1,2,1500,8,1,1,1,2297,6.75,4.793103448,Carrot,Vegetable,FRUTO,FALSE,0.5,0,healthy,-0.5,Old,6.75,1.052570855,0.654356662,4.79,-0.061849401,2.167317335,-0.635150575,2.35,-0.463936723,5.581,58,17,18,0.95,female
12,1,1,2500,9,2,1,2,1129,6.125,3.517241379,Giraffe,Mammals,MAMÍFERO,aTRUE,-0.5,0,healthy,-0.5,Old,6.125,0.590870964,-0.443546926,3.52,-0.265378909,1.963787827,-0.941412342,2.04,-0.385923391,5.617,58,17,18,0.95,female
12,1,3,3000,10,2,1,2,869,6.833333333,5.655172414,Shirt,Clothing,VESTUÁRIO,aTRUE,-0.5,0,healthy,-0.5,Old,6.833333333,1.11413084,1.406463845,5.66,0.963400717,3.192567453,-0.55611528,2.43,0.333532887,5.949,58,17,18,0.95,female
12,1,2,1500,11,1,1,1,1284,6.875,3.103448276,Revolver,Weapon,FRUTO,FALSE,0.5,0,healthy,-0.5,Old,6.875,1.144910833,-0.806633153,3.1,0.17566698,2.404833717,1.469164149,4.48,0.656421398,6.098,58,17,18,0.95,female
12,1,3,2000,12,1,1,1,964,6.666666667,4.655172414,Cabbage,Vegetable,VESTUÁRIO,FALSE,0.5,0,healthy,-0.5,Old,6.666666667,0.99101087,0.54197283,4.66,-0.342676011,1.886490725,-0.319009395,2.67,-1.001361894,5.333,58,17,18,0.95,female
12,1,3,3000,13,1,1,1,1075,6.75,3.137931034,Missile,Weapon,VESTUÁRIO,FALSE,0.5,0,healthy,-0.5,Old,6.75,1.052570855,-0.772053512,3.14,0.130668746,2.359835482,-2.956812359,NA,-0.206059322,5.7,58,17,18,0.95,female
12,1,1,2000,14,1,1,1,1207,5.714285714,2.206896552,colander,Kitchent Utensil,MAMÍFERO,FALSE,0.5,0,healthy,-0.5,Old,5.714285714,0.287468179,-1.576030156,2.21,-0.973894231,1.255272505,1.281455324,4.29,-1.894181131,4.921,58,17,18,0.95,female
12,1,2,1500,15,2,1,2,744,6.958333333,5.172413793,Pear,Fruit,FRUTO,aTRUE,-0.5,0,healthy,-0.5,Old,6.958333333,1.206470818,0.982863248,5.17,-0.242395002,1.986771734,-1.405744699,1.57,0.6975951,6.117,58,17,18,0.95,female
12,1,4,3000,16,1,1,1,1131,6.625,4.206896552,Spinach,Vegetable,VEÍCULO,FALSE,0.5,0,healthy,-0.5,Old,6.625,0.960230877,0.152951874,4.21,-0.672864235,1.556302501,-0.091782923,2.9,-1.129217076,5.274,58,17,18,0.95,female
12,1,4,2000,17,1,1,1,942,6.291666667,3.620689655,Parakeet,Birds,VEÍCULO,FALSE,0.5,0,healthy,-0.5,Old,6.291666667,0.713990935,-0.357097825,3.62,-0.638102129,1.591064607,0.007011196,3,0.517731031,6.034,58,17,18,0.95,female
12,1,3,2000,18,2,1,2,1461,6.666666667,5.24137931,Blouse,Clothing,VESTUÁRIO,aTRUE,-0.5,0,healthy,-0.5,Old,6.666666667,0.99101087,1.043377619,5.24,0.357420569,2.586587305,-0.595632927,2.39,1.139670645,6.321,58,17,18,0.95,female
12,1,2,1500,19,1,1,1,1077,6.375,3.344827586,Sparrow,Birds,FRUTO,FALSE,0.5,0,healthy,-0.5,Old,6.375,0.77555092,-0.599155309,3.34,-0.443836901,1.785329835,0.056408255,3.05,0.298860295,5.933,58,17,18,0.95,female
12,1,1,1500,20,2,1,2,893,6.333333333,4.896551724,Pig,Mammals,MAMÍFERO,aTRUE,-0.5,0,healthy,-0.5,Old,6.333333333,0.744770927,0.749450674,4.9,0.949234605,3.178401342,-1.119241755,1.86,-0.255901172,5.677,58,17,18,0.95,female
12,1,4,2500,21,2,1,2,1250,6.625,5.551724138,Van,Vehicles,VEÍCULO,aTRUE,-0.5,0,healthy,-0.5,Old,6.625,0.960230877,1.311369834,5.55,0.667359481,2.896526217,-0.467200573,2.52,0.480891402,6.017,58,17,18,0.95,female
12,1,3,2500,22,1,1,1,1055,5.708333333,3.275862069,Swan,Birds,VESTUÁRIO,FALSE,0.5,0,healthy,-0.5,Old,5.708333333,0.283071037,-0.65102477,3.28,-0.191740238,2.037426498,-0.042385864,2.95,0.372539553,5.967,58,17,18,0.95,female
12,1,3,2000,23,1,1,1,1115,6.291666667,3.344827586,Stork,Birds,VESTUÁRIO,FALSE,0.5,0,healthy,-0.5,Old,6.291666667,0.713990935,-0.599155309,3.34,-0.538970656,1.69019608,-0.842618223,2.14,0.883960281,6.203,58,17,18,0.95,female
12,1,1,2500,24,2,1,2,1388,5.041666667,2.517241379,Moose,Mammals,MAMÍFERO,aTRUE,-0.5,0,healthy,-0.5,Old,5.041666667,-0.209408846,-1.308037941,2.52,-0.102061938,2.127104798,1.854461211,4.87,-1.72298521,5,58,17,18,0.95,female
12,1,4,2500,25,2,1,2,1059,3.666666667,3.068965517,Submarine,Vehicles,VEÍCULO,aTRUE,-0.5,0,healthy,-0.5,Old,3.666666667,-1.225148605,-0.832567883,3.07,0.170506985,2.399673721,1.182661205,4.19,-0.51594561,5.557,58,17,18,0.95,female
12,1,4,2000,26,1,1,1,1229,6.666666667,3.310344828,Shotgun,Weapon,VEÍCULO,FALSE,0.5,0,healthy,-0.5,Old,6.666666667,0.99101087,-0.625090039,3.31,0.444775262,2.673941999,1.380249442,4.39,-0.216894507,5.695,58,17,18,0.95,female
12,1,2,2000,27,1,1,1,1454,5.75,3.137931034,Peacock,Birds,FRUTO,FALSE,0.5,0,healthy,-0.5,Old,5.75,0.31385103,-0.772053512,3.14,-0.436775047,1.792391689,0.056408255,3.05,-0.849669306,5.403,58,17,18,0.95,female
12,1,3,1500,29,2,1,2,1181,5.541666667,5.551724138,Bra,Clothing,VESTUÁRIO,aTRUE,-0.5,0,healthy,-0.5,Old,5.541666667,0.159951067,1.311369834,5.55,-0.014322888,2.214843848,-2.956812359,NA,-12.55817012,NA,58,17,18,0.95,female
12,1,1,3000,30,2,1,2,1244,5.333333333,3.586206897,Whale,Mammals,MAMÍFERO,aTRUE,-0.5,0,healthy,-0.5,Old,5.333333333,0.006051103,-0.383032555,3.59,0.189134555,2.418301291,0.007011196,3,-0.10637562,5.746,58,17,18,0.95,female
12,1,2,2000,32,1,1,1,1097,2.5,5.379310345,Stone,Weapon,FRUTO,FALSE,0.5,0,healthy,-0.5,Old,2.5,-2.086988401,1.164406361,5.38,0.961445062,3.190611798,-2.956812359,NA,1.094162868,6.3,58,17,18,0.95,female
12,1,1,2000,34,2,1,2,1423,5.541666667,2.931034483,Hyena,Mammals,MAMÍFERO,aTRUE,-0.5,0,healthy,-0.5,Old,5.541666667,0.159951067,-0.953596625,2.93,-0.547925499,1.681241237,1.311093559,4.32,-0.518112647,5.556,58,17,18,0.95,female
12,1,2,3000,35,2,1,2,2486,5.52173913,2.896551724,Nectarine,Fruit,FRUTO,aTRUE,-0.5,0,healthy,-0.5,Old,5.52173913,0.1452302,-0.979531356,2.9,-2.229166736,0,-2.956812359,NA,-12.55817012,NA,58,17,18,0.95,female
12,1,3,2500,36,1,1,1,1482,2.434782609,3.103448276,Crowbar,Weapon,VESTUÁRIO,FALSE,0.5,0,healthy,-0.5,Old,2.434782609,-2.13516578,-0.806633153,3.1,0.074029321,2.303196057,-2.956812359,NA,-12.55817012,NA,58,17,18,0.95,female
12,1,1,1500,38,1,1,1,1095,4.75,2.482758621,Basting brush,Kitchent Utensil,MAMÍFERO,FALSE,0.5,0,healthy,-0.5,Old,4.75,-0.424868795,-1.342617582,2.48,-2.229166736,NA,-0.121421159,2.87,0.149334744,5.864,58,17,18,0.95,female
12,1,1,2000,39,1,1,1,1074,3.125,4.689655172,Mushroom,Vegetable,MAMÍFERO,FALSE,0.5,0,healthy,-0.5,Old,3.125,-1.62528851,0.567907561,4.69,-0.274924227,1.954242509,0.056408255,3.05,0.667256582,6.103,58,17,18,0.95,female
12,1,4,2000,40,2,1,2,1071,5.708333333,4.137931034,Street car/trolley,Vehicles,VEÍCULO,aTRUE,-0.5,0,healthy,-0.5,Old,5.708333333,0.283071037,0.092437503,4.14,0.250840207,2.480006943,0.24411708,3.24,-2.386098526,4.694,58,17,18,0.95,female
12,1,2,3000,41,1,1,1,1087,4.695652174,2.448275862,Flour sifter,Kitchent Utensil,FRUTO,FALSE,0.5,0,healthy,-0.5,Old,4.695652174,-0.465016611,-1.368552312,2.45,-0.724016758,1.505149978,-2.956812359,NA,-12.55817012,NA,58,17,18,0.95,female
12,1,4,2000,42,2,1,2,1335,3.083333333,3.137931034,Rocket,Vehicles,VEÍCULO,aTRUE,-0.5,0,healthy,-0.5,Old,3.083333333,-1.656068503,-0.772053512,3.14,-0.270125344,1.959041392,-0.091782923,2.9,0.407212144,5.983,58,17,18,0.95,female
12,1,3,3000,43,1,1,1,2297,4.458333333,2.275862069,Icecube tray,Kitchent Utensil,VESTUÁRIO,FALSE,0.5,0,healthy,-0.5,Old,4.458333333,-0.640328744,-1.515515785,2.28,-2.229166736,NA,-2.956812359,NA,-12.55817012,NA,58,17,18,0.95,female
12,1,2,2000,44,2,1,2,870,4.791666667,2.517241379,Date,Fruit,FRUTO,aTRUE,-0.5,0,healthy,-0.5,Old,4.791666667,-0.394088802,-1.308037941,2.52,-1.627106745,0.602059991,2.032290624,5.05,-1.538787066,5.085,58,17,18,0.95,female
12,1,4,1500,45,1,1,1,1110,4.375,2.448275862,Pepper grinder,Kitchent Utensil,VEÍCULO,FALSE,0.5,0,healthy,-0.5,Old,4.375,-0.701888729,-1.368552312,2.45,-1.025046754,1.204119983,-2.956812359,NA,-12.55817012,NA,58,17,18,0.95,female
12,1,3,2500,46,2,1,2,890,4.25,4.448275862,Cape,Clothing,VESTUÁRIO,aTRUE,-0.5,0,healthy,-0.5,Old,4.25,-0.794228707,0.360429717,4.45,0.675007632,2.904174368,-2.956812359,NA,-0.884341897,5.387,58,17,18,0.95,female
12,1,3,1500,47,2,1,2,760,2.458333333,4.344827586,Apron,Clothing,VESTUÁRIO,aTRUE,-0.5,0,healthy,-0.5,Old,2.458333333,-2.117768393,0.265335706,4.34,-0.102061938,2.127104798,-2.956812359,NA,-1.296078924,5.197,58,17,18,0.95,female
12,1,4,3000,48,1,1,1,1164,5.916666667,2.655172414,Woodpecker,Birds,VEÍCULO,FALSE,0.5,0,healthy,-0.5,Old,5.916666667,0.436971001,-1.187009199,2.66,-0.814193388,1.414973348,-0.39804469,2.59,-12.55817012,NA,58,17,18,0.95,female
12,1,2,2500,49,2,1,2,1057,4.416666667,3.517241379,Lime,Fruit,FRUTO,aTRUE,-0.5,0,healthy,-0.5,Old,4.416666667,-0.671108736,-0.443546926,3.52,-0.011682792,2.217483944,0.767725908,3.77,-0.060867844,5.767,58,17,18,0.95,female
12,1,3,3000,50,1,1,1,892,3.875,5.068965517,Onion,Vegetable,VESTUÁRIO,FALSE,0.5,0,healthy,-0.5,Old,3.875,-1.071248641,0.896414147,5.07,0.189134555,2.418301291,-0.467200573,2.52,-0.195224137,5.705,58,17,18,0.95,female
12,1,4,1500,51,2,1,2,914,4.25,3.172413793,Wagon,Vehicles,VEÍCULO,aTRUE,-0.5,0,healthy,-0.5,Old,4.25,-0.794228707,-0.746118782,3.17,0.192437191,2.421603927,-0.042385864,2.95,0.847120652,6.186,58,17,18,0.95,female
12,1,4,3000,52,1,1,1,1628,3.291666667,5.034482759,Garlic,Vegetable,VEÍCULO,FALSE,0.5,0,healthy,-0.5,Old,3.291666667,-1.502168539,0.861834506,5.03,0.156439537,2.385606274,-0.249853513,2.74,0.665089545,6.102,58,17,18,0.95,female
12,1,2,1500,53,2,1,2,758,6.625,4.275862069,Cantaloupe,Fruit,FRUTO,aTRUE,-0.5,0,healthy,-0.5,Old,6.625,0.960230877,0.213466245,4.28,-0.176088293,2.053078443,-0.536356456,2.45,1.256690642,6.375,58,17,18,0.95,female
12,1,3,3000,54,1,1,1,1249,5.958333333,3.75862069,Spatula,Kitchent Utensil,VESTUÁRIO,FALSE,0.5,0,healthy,-0.5,Old,5.958333333,0.467750993,-0.236069083,3.76,-0.513163393,1.716003344,-2.956812359,NA,-12.55817012,NA,58,17,18,0.95,female
12,1,4,1500,55,1,1,1,1354,2.166666667,3.724137931,Screwdriver,Weapon,VEÍCULO,FALSE,0.5,0,healthy,-0.5,Old,2.166666667,-2.333228342,-0.270648723,3.72,-2.229166736,NA,-2.956812359,NA,-12.55817012,NA,58,17,18,0.95,female
12,1,2,2500,56,1,1,1,1099,5.708333333,3.344827586,Can opener,Kitchent Utensil,FRUTO,FALSE,0.5,0,healthy,-0.5,Old,5.708333333,0.283071037,-0.599155309,3.34,-0.737805042,1.491361694,-2.956812359,NA,-12.55817012,NA,58,17,18,0.95,female
12,1,2,3000,57,2,1,2,723,6.333333333,3.862068966,Blueberry,Fruit,FRUTO,aTRUE,-0.5,0,healthy,-0.5,Old,6.333333333,0.744770927,-0.149619981,3.86,-0.365843876,1.86332286,0.13544355,3.13,0.593577325,6.069,58,17,18,0.95,female
12,1,1,2500,58,2,1,2,1748,3.875,2.862068966,Porcupine,Mammals,MAMÍFERO,aTRUE,-0.5,0,healthy,-0.5,Old,3.875,-1.071248641,-1.014110996,2.86,-0.697687819,1.531478917,-2.956812359,NA,-12.55817012,NA,58,17,18,0.95,female
12,1,1,2500,59,1,1,1,1290,6.25,3.206896552,Owl,Birds,MAMÍFERO,FALSE,0.5,0,healthy,-0.5,Old,6.25,0.683210942,-0.711539141,3.21,-0.187774051,2.041392685,0.007011196,3,0.587076214,6.066,58,17,18,0.95,female
12,1,4,1500,61,1,1,1,1205,5.791666667,4.793103448,Cork screw,Kitchent Utensil,VEÍCULO,FALSE,0.5,0,healthy,-0.5,Old,5.791666667,0.344631023,0.654356662,4.79,-0.504890867,1.72427587,-2.956812359,NA,-12.55817012,NA,58,17,18,0.95,female
12,1,2,2000,62,2,1,2,721,6.52173913,3.103448276,Apricot,Fruit,FRUTO,aTRUE,-0.5,0,healthy,-0.5,Old,6.52173913,0.883950025,-0.806633153,3.1,-1.326076749,0.903089987,0.738087672,3.74,-1.54312114,5.083,58,17,18,0.95,female
12,1,1,2000,63,1,1,1,941,1.75,4.517241379,Rock,Weapon,MAMÍFERO,FALSE,0.5,0,healthy,-0.5,Old,1.75,-2.641028269,0.420944088,4.52,0.509613822,2.738780558,-2.956812359,NA,0.480891402,6.017,58,17,18,0.95,female
12,1,1,3000,64,2,1,2,836,6.208333333,2.965517241,Zebra,Mammals,MAMÍFERO,aTRUE,-0.5,0,healthy,-0.5,Old,6.208333333,0.652430949,-0.919016985,2.97,-0.251443131,1.977723605,-0.654909398,2.33,0.8557888,6.19,58,17,18,0.95,female
13,3,2,3000,1,2,1,2,1439,7,5,Peach,Fruit,FRUTO,aTRUE,-0.5,0.5,healthy,-0.5,Old,7,1.237250811,0.835899775,5,-0.047323148,2.181843588,-0.793221164,2.19,1.04215398,6.276,68,17,19,0.94,male
13,3,1,2500,2,1,1,1,1372,6.916666667,3.75862069,Eagle,Birds,MAMÍFERO,FALSE,0.5,0.5,healthy,-0.5,Old,6.916666667,1.175690826,-0.236069083,3.76,0.231731107,2.460897843,-0.042385864,2.95,0.1233303,5.852,68,17,19,0.94,male
13,3,3,3000,3,2,1,2,1141,6.916666667,6.413793103,Jacket,Clothing,VESTUÁRIO,aTRUE,-0.5,0.5,healthy,-0.5,Old,6.916666667,1.175690826,2.054832106,6.41,0.987526863,3.216693599,-0.882135871,2.1,0.032314746,5.81,68,17,19,0.94,male
13,3,1,3000,4,1,1,1,1335,6.25,3.620689655,Oven mitts,Kitchent Utensil,MAMÍFERO,FALSE,0.5,0.5,healthy,-0.5,Old,6.25,0.683210942,-0.357097825,3.62,0.294579731,2.523746467,-2.956812359,NA,-12.55817012,NA,68,17,19,0.94,male
13,3,1,2000,5,2,1,2,1688,4.833333333,3.482758621,Squirrel,Mammals,MAMÍFERO,aTRUE,-0.5,0.5,healthy,-0.5,Old,4.833333333,-0.36330881,-0.478126567,3.48,0.123015782,2.3521825180000002,0.095925902,3.09,1.154839904,6.328,68,17,19,0.94,male
13,3,4,2000,6,2,1,2,1160,2.666666667,2.75862069,Raft,Vehicles,VEÍCULO,aTRUE,-0.5,0.5,healthy,-0.5,Old,2.666666667,-1.963868429,-1.100560098,2.76,-0.422986762,1.806179974,0.99495238,4,-0.570121535,5.532,68,17,19,0.94,male
13,3,2,2000,7,1,1,1,884,5.375,3,Goose,Birds,FRUTO,FALSE,0.5,0.5,healthy,-0.5,Old,5.375,0.036831096,-0.893082254,3,0.105287015,2.334453751,0.105805314,3.1,0.628249917,6.085,68,17,19,0.94,male
13,3,2,1500,8,2,1,2,1276,5.75,3.413793103,Coconut,Fruit,FRUTO,aTRUE,-0.5,0.5,healthy,-0.5,Old,5.75,0.31385103,-0.538640938,3.41,0.213313033,2.442479769,-0.803100576,2.18,-0.622130422,5.508,68,17,19,0.94,male
13,3,4,2000,10,1,1,1,1673,3.166666667,2.931034483,Slingshot,Weapon,VEÍCULO,FALSE,0.5,0.5,healthy,-0.5,Old,3.166666667,-1.594508517,-0.953596625,2.93,0.239180594,2.46834733,-2.956812359,NA,-12.55817012,NA,68,17,19,0.94,male
13,3,4,2000,11,2,1,2,935,6.666666667,4.931034483,Taxi,Vehicles,VEÍCULO,aTRUE,-0.5,0.5,healthy,-0.5,Old,6.666666667,0.99101087,0.775385404,4.93,0.845649704,3.074816441,0.056408255,3.05,1.154839904,6.328,68,17,19,0.94,male
13,3,2,1500,12,2,1,2,1087,6.875,5.137931034,Strawberry,Fruit,FRUTO,aTRUE,-0.5,0.5,healthy,-0.5,Old,6.875,1.144910833,0.956928518,5.14,0.06968634,2.298853076,-1.178518226,1.8,0.87745917,6.2,68,17,19,0.94,male
13,3,2,2000,13,1,1,1,985,6.75,6.379310345,Spoon,Kitchent Utensil,FRUTO,FALSE,0.5,0.5,healthy,-0.5,Old,6.75,1.052570855,2.028897376,6.38,0.490992567,2.720159303,-1.455141758,1.52,-0.017527104,5.787,68,17,19,0.94,male
13,3,3,1500,14,1,1,1,1321,6.666666667,6.517241379,Plate,Kitchent Utensil,VESTUÁRIO,FALSE,0.5,0.5,healthy,-0.5,Old,6.666666667,0.99101087,2.149926118,6.52,0.776013776,3.005180513,-1.356347639,1.62,0.665089545,6.102,68,17,19,0.94,male
13,3,1,3000,15,2,1,2,1017,6.291666667,5.137931034,Cow,Mammals,MAMÍFERO,aTRUE,-0.5,0.5,healthy,-0.5,Old,6.291666667,0.713990935,0.956928518,5.14,0.817718455,3.046885191,-1.277312345,1.7,1.0139825,6.263,68,17,19,0.94,male
13,3,4,2500,16,2,1,2,1073,6.125,5.931034483,Train,Vehicles,VEÍCULO,aTRUE,-0.5,0.5,healthy,-0.5,Old,6.125,0.590870964,1.639876419,5.93,0.81966335,3.048830087,-1.30695058,1.67,1.471227303,6.474,68,17,19,0.94,male
13,3,3,2500,17,1,1,1,947,5.833333333,2.275862069,Celery,Vegetable,VESTUÁRIO,FALSE,0.5,0.5,healthy,-0.5,Old,5.833333333,0.375411015,-1.515515785,2.28,-0.52159656,1.707570176,2.457105334,5.48,-2.418604081,4.679,68,17,19,0.94,male
13,3,3,2500,18,1,1,1,1873,6.291666667,2.931034483,Cannon,Weapon,VESTUÁRIO,FALSE,0.5,0.5,healthy,-0.5,Old,6.291666667,0.713990935,-0.953596625,2.93,0.278689136,2.507855872,0.99495238,4,0.227348075,5.9,68,17,19,0.94,male
13,3,2,2500,19,2,1,2,844,6.541666667,5.068965517,Pineapple,Fruit,FRUTO,aTRUE,-0.5,0.5,healthy,-0.5,Old,6.541666667,0.898670891,0.896414147,5.07,-0.342676011,1.886490725,-0.55611528,2.43,-0.871339675,5.393,68,17,19,0.94,male
13,3,4,2000,20,1,1,1,1160,5.681818182,3.551724138,Zucchini,Vegetable,VEÍCULO,FALSE,0.5,0.5,healthy,-0.5,Old,5.681818182,0.263483769,-0.417612196,3.55,-2.229166736,NA,-2.956812359,NA,-12.55817012,NA,68,17,19,0.94,male
13,3,1,3000,21,1,1,1,1316,6.208333333,3.655172414,Bomb,Weapon,MAMÍFERO,FALSE,0.5,0.5,healthy,-0.5,Old,6.208333333,0.652430949,-0.322518184,3.66,0.981953805,3.211120541,-2.956812359,NA,0.6975951,6.117,68,17,19,0.94,male
13,3,1,1500,22,2,1,2,1351,5.833333333,3.448275862,Leopard,Mammals,MAMÍFERO,aTRUE,-0.5,0.5,healthy,-0.5,Old,5.833333333,0.375411015,-0.504061297,3.45,-0.121956767,2.10720997,0.392308258,3.39,1.453891007,6.466,68,17,19,0.94,male
13,3,2,2000,23,2,1,2,1023,4.916666667,5.103448276,Lemon,Fruit,FRUTO,aTRUE,-0.5,0.5,healthy,-0.5,Old,4.916666667,-0.301748824,0.922348877,5.1,0.322283262,2.551449998,-1.079724108,1.9,0.920799909,6.22,68,17,19,0.94,male
13,3,2,2500,24,1,1,1,1009,4.083333333,3.137931034,Poison,Weapon,FRUTO,FALSE,0.5,0.5,healthy,-0.5,Old,4.083333333,-0.917348678,-0.772053512,3.14,0.71432778,2.943494516,-2.956812359,NA,-2.596301114,4.597,68,17,19,0.94,male
13,3,3,1500,25,2,1,2,2309,4.666666667,6.034482759,Boots,Clothing,VESTUÁRIO,aTRUE,-0.5,0.5,healthy,-0.5,Old,4.666666667,-0.48642878,1.726325521,6.03,0.747641601,2.976808337,-1.326709404,1.65,-0.656803014,5.492,68,17,19,0.94,male
13,3,1,2000,26,1,1,1,1152,5.666666667,3.137931034,Asparagus,Vegetable,MAMÍFERO,FALSE,0.5,0.5,healthy,-0.5,Old,5.666666667,0.252291045,-0.772053512,3.14,-0.886744055,1.342422681,2.358311215,5.38,-1.796664467,4.966,68,17,19,0.94,male
13,3,4,1500,27,2,1,2,1182,5.333333333,3.344827586,Tractor,Vehicles,VEÍCULO,aTRUE,-0.5,0.5,healthy,-0.5,Old,5.333333333,0.006051103,-0.599155309,3.34,-0.168468896,2.06069784,0.263875904,3.26,0.203510668,5.889,68,17,19,0.94,male
13,3,2,2000,29,1,1,1,1147,5.166666667,2.827586207,Spear,Weapon,FRUTO,FALSE,0.5,0.5,healthy,-0.5,Old,5.166666667,-0.117068868,-1.040045727,2.83,0.479254164,2.7084209,1.380249442,4.39,-1.547455214,5.081,68,17,19,0.94,male
13,3,3,3000,30,2,1,2,2354,4.416666667,4.965517241,Scarf,Clothing,VESTUÁRIO,aTRUE,-0.5,0.5,healthy,-0.5,Old,4.416666667,-0.671108736,0.809965045,4.97,-0.125363015,2.103803721,-0.170818218,2.82,-0.169219693,5.717,68,17,19,0.94,male
13,3,4,2500,31,1,1,1,1324,5.708333333,2.517241379,Whisk,Kitchent Utensil,VEÍCULO,FALSE,0.5,0.5,healthy,-0.5,Old,5.708333333,0.283071037,-1.308037941,2.52,-0.009058648,2.220108088,0.323152375,3.32,0.112495115,5.847,68,17,19,0.94,male
13,3,3,2000,32,2,1,2,1759,4.875,4.517241379,Leotards,Clothing,VESTUÁRIO,aTRUE,-0.5,0.5,healthy,-0.5,Old,4.875,-0.332528817,0.420944088,4.52,-0.29974781,1.929418926,-2.956812359,NA,-12.55817012,NA,68,17,19,0.94,male
13,3,1,1500,33,1,1,1,1243,4.75,4.689655172,Bean,Vegetable,MAMÍFERO,FALSE,0.5,0.5,healthy,-0.5,Old,4.75,-0.424868795,0.567907561,4.69,0.239180594,2.46834733,-0.28937116,2.7,-0.656803014,5.492,68,17,19,0.94,male
13,3,1,3000,34,1,1,1,1969,4.125,2.724137931,Pepper spray,Weapon,MAMÍFERO,FALSE,0.5,0.5,healthy,-0.5,Old,4.125,-0.886568685,-1.135139738,2.72,-2.229166736,NA,-2.956812359,NA,-12.55817012,NA,68,17,19,0.94,male
13,3,4,1500,36,1,1,1,1087,4.833333333,3,Ostrich,Birds,VEÍCULO,FALSE,0.5,0.5,healthy,-0.5,Old,4.833333333,-0.36330881,-0.893082254,3,-0.451015486,1.77815125,0.382428846,3.38,1.280528049,6.386,68,17,19,0.94,male
13,3,1,3000,37,2,1,2,1463,5.608695652,2.724137931,Cougar,Mammals,MAMÍFERO,aTRUE,-0.5,0.5,healthy,-0.5,Old,5.608695652,0.209466707,-1.135139738,2.72,-0.41625338,1.812913357,-2.956812359,NA,-12.55817012,NA,68,17,19,0.94,male
13,3,1,2500,38,2,1,2,1084,5.458333333,3.482758621,Camel,Mammals,MAMÍFERO,aTRUE,-0.5,0.5,healthy,-0.5,Old,5.458333333,0.098391081,-0.478126567,3.48,0.06529949,2.294466226,-0.279491748,2.71,0.667256582,6.103,68,17,19,0.94,male
13,3,3,2000,39,2,1,2,1336,3.5,3.068965517,Shawl,Clothing,VESTUÁRIO,aTRUE,-0.5,0.5,healthy,-0.5,Old,3.5,-1.348268576,-0.832567883,3.07,-0.710652796,1.51851394,-2.956812359,NA,-12.55817012,NA,68,17,19,0.94,male
13,3,4,2500,40,1,1,1,1257,6.375,5.344827586,Mixing bowl,Kitchent Utensil,VEÍCULO,FALSE,0.5,0.5,healthy,-0.5,Old,6.375,0.77555092,1.12982672,5.34,0.109289757,2.338456494,-0.66478881,2.32,1.295697307,6.393,68,17,19,0.94,male
13,3,4,2500,41,1,1,1,1019,4.166666667,4.172413793,Parsley,Vegetable,VEÍCULO,FALSE,0.5,0.5,healthy,-0.5,Old,4.166666667,-0.855788692,0.118372233,4.17,0.249399759,2.478566496,0.827002379,3.83,0.181840298,5.879,68,17,19,0.94,male
13,3,2,2500,42,2,1,2,898,6.291666667,3.793103448,Raspberry,Fruit,FRUTO,aTRUE,-0.5,0.5,healthy,-0.5,Old,6.291666667,0.713990935,-0.210134352,3.79,-0.265378909,1.963787827,-2.956812359,NA,-12.55817012,NA,68,17,19,0.94,male
13,3,3,1500,43,1,1,1,994,5.083333333,3.413793103,Funnel,Kitchent Utensil,VESTUÁRIO,FALSE,0.5,0.5,healthy,-0.5,Old,5.083333333,-0.178628853,-0.538640938,3.41,-0.566408904,1.662757832,-0.091782923,2.9,-1.447771513,5.127,68,17,19,0.94,male
13,3,3,3000,44,1,1,1,1028,5.166666667,2.344827586,Pelican,Birds,VESTUÁRIO,FALSE,0.5,0.5,healthy,-0.5,Old,5.166666667,-0.117068868,-1.463646324,2.34,-0.752045481,1.477121255,1.854461211,4.87,-1.579960769,5.066,68,17,19,0.94,male
13,3,1,1500,45,2,1,2,1548,3.958333333,3.275862069,Bat,Mammals,MAMÍFERO,aTRUE,-0.5,0.5,healthy,-0.5,Old,3.958333333,-1.009688656,-0.65102477,3.28,0.063089335,2.292256071,0.431825905,3.43,0.301027332,5.934,68,17,19,0.94,male
13,3,4,2500,46,2,1,2,989,4.208333333,3.24137931,Tricycle,Vehicles,VEÍCULO,aTRUE,-0.5,0.5,healthy,-0.5,Old,4.208333333,-0.8250087,-0.685604411,3.24,-0.627106745,1.602059991,-1.020447637,1.96,0.181840298,5.879,68,17,19,0.94,male
13,3,1,2000,47,2,1,2,1252,6.375,4.275862069,Horse,Mammals,MAMÍFERO,aTRUE,-0.5,0.5,healthy,-0.5,Old,6.375,0.77555092,0.213466245,4.28,0.991725513,3.220892249,-1.277312345,1.7,0.743102877,6.138,68,17,19,0.94,male
13,3,4,2500,48,1,1,1,1143,6.25,6.413793103,Knife,Weapon,VEÍCULO,FALSE,0.5,0.5,healthy,-0.5,Old,6.25,0.683210942,2.054832106,6.41,0.948658236,3.177824972,-1.020447637,1.96,0.515563994,6.033,68,17,19,0.94,male
13,3,4,3000,49,2,1,2,1223,4.416666667,3.24137931,Yatch,Vehicles,VEÍCULO,aTRUE,-0.5,0.5,healthy,-0.5,Old,4.416666667,-0.671108736,-0.685604411,3.24,0.047295068,2.276461804,2.249637685,5.27,0.552403622,6.05,68,17,19,0.94,male
13,3,1,2000,50,1,1,1,948,5.541666667,3.034482759,Kettle,Kitchent Utensil,MAMÍFERO,FALSE,0.5,0.5,healthy,-0.5,Old,5.541666667,0.159951067,-0.867147524,3.03,-0.326076749,1.903089987,1.2616965,4.27,-0.622130422,5.508,68,17,19,0.94,male
13,3,2,2000,51,1,1,1,1066,5.1,2.034482759,Pie pan,Kitchent Utensil,FRUTO,FALSE,0.5,0.5,healthy,-0.5,Old,5.1,-0.166316856,-1.731638538,2.03,-2.229166736,NA,-2.956812359,NA,-12.55817012,NA,68,17,19,0.94,male
13,3,2,1500,52,1,1,1,1464,4.666666667,5.689655172,Potato,Vegetable,FRUTO,FALSE,0.5,0.5,healthy,-0.5,Old,4.666666667,-0.48642878,1.432398576,5.69,0.429798106,2.658964843,-1.109362343,1.87,-0.51594561,5.557,68,17,19,0.94,male
13,3,3,3000,53,2,1,2,2689,3.173913043,3.517241379,Cloak,Clothing,VESTUÁRIO,aTRUE,-0.5,0.5,healthy,-0.5,Old,3.173913043,-1.589155475,-0.443546926,3.52,0.021253266,2.250420002,-2.956812359,NA,-12.55817012,NA,68,17,19,0.94,male
13,3,2,3000,54,1,1,1,1259,6.75,2.75862069,Falcon,Birds,FRUTO,FALSE,0.5,0.5,healthy,-0.5,Old,6.75,1.052570855,-1.100560098,2.76,0.028511839,2.257678575,1.350611207,4.36,-0.604794126,5.516,68,17,19,0.94,male
13,3,1,2500,55,2,1,2,1040,6.625,4.275862069,Lion,Mammals,MAMÍFERO,aTRUE,-0.5,0.5,healthy,-0.5,Old,6.625,0.960230877,0.213466245,4.28,0.433591096,2.662757832,-1.109362343,1.87,-0.394591539,5.613,68,17,19,0.94,male
13,3,3,2500,56,1,1,1,859,4.375,4.103448276,Chickpeas,Vegetable,VESTUÁRIO,FALSE,0.5,0.5,healthy,-0.5,Old,4.375,-0.701888729,0.057857862,4.1,0.084700484,2.31386722,-0.081903511,2.91,-0.097707473,5.75,68,17,19,0.94,male
13,3,3,1500,57,1,1,1,1012,3.25,2.965517241,Whip,Weapon,VESTUÁRIO,FALSE,0.5,0.5,healthy,-0.5,Old,3.25,-1.532948532,-0.919016985,2.97,0.080463431,2.309630167,0.99495238,4,0.985811019,6.25,68,17,19,0.94,male
13,3,2,2000,58,2,1,2,1079,6.791666667,3.965517241,Plum,Fruit,FRUTO,aTRUE,-0.5,0.5,healthy,-0.5,Old,6.791666667,1.083350848,-0.05452597,3.97,-0.315352884,1.913813852,-0.18069763,2.81,0.840619541,6.183,68,17,19,0.94,male
13,3,2,1500,59,2,1,2,1740,2.625,4.620689655,Olive,Fruit,FRUTO,aTRUE,-0.5,0.5,healthy,-0.5,Old,2.625,-1.994648422,0.50739319,4.62,-0.443836901,1.785329835,0.007011196,3,1.527570265,6.5,68,17,19,0.94,male
13,3,4,1500,61,2,1,2,868,6.708333333,6.206896552,Bus,Vehicles,VEÍCULO,aTRUE,-0.5,0.5,healthy,-0.5,Old,6.708333333,1.021790862,1.881933903,6.21,0.782826378,3.011993115,0.13544355,3.13,1.341205084,6.414,68,17,19,0.94,male
13,3,3,3000,62,1,1,1,1098,6.708333333,3.965517241,Seagull,Birds,VESTUÁRIO,FALSE,0.5,0.5,healthy,-0.5,Old,6.708333333,1.021790862,-0.05452597,3.97,-0.504890867,1.72427587,-0.081903511,2.91,0.515563994,6.033,68,17,19,0.94,male
13,3,3,2500,63,2,1,2,948,6.75,5.310344828,Skirt,Clothing,VESTUÁRIO,aTRUE,-0.5,0.5,healthy,-0.5,Old,6.75,1.052570855,1.10389199,5.31,1.291709646,3.520876382,-0.980929989,2,0.623915843,6.083,68,17,19,0.94,male
13,3,4,2500,64,1,1,1,888,6.375,3.620689655,Canary,Birds,VEÍCULO,FALSE,0.5,0.5,healthy,-0.5,Old,6.375,0.77555092,-0.357097825,3.62,-0.37183424,1.857332496,0.194720021,3.19,0.593577325,6.069,68,17,19,0.94,male
13,2,3,2500,1,2,1,2,1492,6.958333333,6.551724138,Pants,Clothing,VESTUÁRIO,aTRUE,-0.5,0.5,healthy,-0.5,Old,6.958333333,1.206470818,2.175860848,6.55,0.997433169,3.226599905,-1.237794697,1.74,2.06932951,6.75,68,17,19,0.94,male
13,2,2,2500,2,1,1,1,1171,4.083333333,5.172413793,Scissors,Kitchent Utensil,FRUTO,FALSE,0.5,0.5,healthy,-0.5,Old,4.083333333,-0.917348678,0.982863248,5.17,0.140049121,2.369215857,-0.378285867,2.61,0.883960281,6.203,68,17,19,0.94,male
13,2,1,2500,3,2,1,2,1334,4.75,3.344827586,Otter,Mammals,MAMÍFERO,aTRUE,-0.5,0.5,healthy,-0.5,Old,4.75,-0.424868795,-0.599155309,3.34,-0.766768738,1.462397998,1.083867087,4.09,0.333532887,5.949,68,17,19,0.94,male
13,2,4,3000,4,2,1,2,1243,6.833333333,4.448275862,Jeep,Vehicles,VEÍCULO,aTRUE,-0.5,0.5,healthy,-0.5,Old,6.833333333,1.11413084,0.360429717,4.45,0.143745267,2.372912003,0.145322961,3.14,0.701929174,6.119,68,17,19,0.94,male
13,2,4,2000,5,1,1,1,1391,6.565217391,2.551724138,Bazooka,Weapon,VEÍCULO,FALSE,0.5,0.5,healthy,-0.5,Old,6.565217391,0.916068278,-1.282103211,2.55,-0.496772976,1.73239376,-2.956812359,NA,-12.55817012,NA,68,17,19,0.94,male
13,2,3,1500,6,2,1,2,1160,5.333333333,6.172413793,Pajama,Clothing,VESTUÁRIO,aTRUE,-0.5,0.5,healthy,-0.5,Old,5.333333333,0.006051103,1.847354263,6.17,0.314901308,2.544068044,-0.892015283,2.09,-0.037030437,5.778,68,17,19,0.94,male
13,2,2,2000,7,1,1,1,1140,6.875,5.344827586,Pot,Kitchent Utensil,FRUTO,FALSE,0.5,0.5,healthy,-0.5,Old,6.875,1.144910833,1.12982672,5.34,-0.605917446,1.62324929,-0.319009395,2.67,0.190508446,5.883,68,17,19,0.94,male
13,2,2,2000,8,2,1,2,985,7,5.482758621,Orange,Fruit,FRUTO,aTRUE,-0.5,0.5,healthy,-0.5,Old,7,1.237250811,1.250855463,5.48,0.566017854,2.79518459,-1.148879991,1.83,1.26535879,6.379,68,17,19,0.94,male
13,2,3,3000,9,1,1,1,1146,6.833333333,5.344827586,Frying pan,Kitchent Utensil,VESTUÁRIO,FALSE,0.5,0.5,healthy,-0.5,Old,6.833333333,1.11413084,1.12982672,5.34,-0.157284729,2.071882007,0.24411708,3.24,-0.706644865,5.469,68,17,19,0.94,male
13,2,1,2000,10,2,1,2,1150,6.541666667,3.586206897,Gorilla,Mammals,MAMÍFERO,aTRUE,-0.5,0.5,healthy,-0.5,Old,6.541666667,0.898670891,-0.383032555,3.59,0.101247037,2.330413773,-0.279491748,2.71,-0.693642643,5.475,68,17,19,0.94,male
13,2,4,2500,11,2,1,2,1162,6.708333333,4.655172414,Truck,Vehicles,VEÍCULO,aTRUE,-0.5,0.5,healthy,-0.5,Old,6.708333333,1.021790862,0.54197283,4.66,0.652217921,2.881384657,-0.803100576,2.18,-0.743484493,5.452,68,17,19,0.94,male
13,2,4,1500,12,1,1,1,1343,6.791666667,6.344827586,Fork,Kitchent Utensil,VEÍCULO,FALSE,0.5,0.5,healthy,-0.5,Old,6.791666667,1.083350848,1.994317735,6.34,0.078329302,2.307496038,-1.020447637,1.96,-1.972194463,4.885,68,17,19,0.94,male
13,2,2,3000,13,2,1,2,999,6.916666667,5.586206897,Banana,Fruit,FRUTO,aTRUE,-0.5,0.5,healthy,-0.5,Old,6.916666667,1.175690826,1.345949474,5.59,0.41428594,2.643452676,-1.148879991,1.83,1.252356568,6.373,68,17,19,0.94,male
13,2,2,3000,14,1,1,1,4684,6.583333333,3.793103448,Cauliflower,Vegetable,FRUTO,FALSE,0.5,0.5,healthy,-0.5,Old,6.583333333,0.929450884,-0.210134352,3.79,-0.782008705,1.447158031,0.668931789,3.67,-12.55817012,NA,68,17,19,0.94,male
13,2,3,1500,15,1,1,1,1431,6.625,3.068965517,Grenade,Weapon,VESTUÁRIO,FALSE,0.5,0.5,healthy,-0.5,Old,6.625,0.960230877,-0.832567883,3.07,0.33785963,2.567026366,1.755667092,4.77,-0.407593761,5.607,68,17,19,0.94,male
13,2,1,1500,16,2,1,2,1298,5.666666667,2.965517241,Buffalo,Mammals,MAMÍFERO,aTRUE,-0.5,0.5,healthy,-0.5,Old,5.666666667,0.252291045,-0.919016985,2.97,-0.115223384,2.113943352,1.083867087,4.09,-0.44443339,5.59,68,17,19,0.94,male
13,2,4,2000,17,2,1,2,1445,5.083333333,3.689655172,Ship,Vehicles,VEÍCULO,aTRUE,-0.5,0.5,healthy,-0.5,Old,5.083333333,-0.178628853,-0.296583454,3.69,0.684117166,2.913283902,0.056408255,3.05,0.823283245,6.175,68,17,19,0.94,male
13,2,2,3000,18,1,1,1,1084,6.625,4.068965517,Pistol,Weapon,FRUTO,FALSE,0.5,0.5,healthy,-0.5,Old,6.625,0.960230877,0.031923132,4.07,0.793673875,3.022840611,-0.506718221,2.48,0.628249917,6.085,68,17,19,0.94,male
13,2,4,1500,19,1,1,1,1437,6.208333333,4.793103448,Peas,Vegetable,VEÍCULO,FALSE,0.5,0.5,healthy,-0.5,Old,6.208333333,0.652430949,0.654356662,4.79,-0.0830387,2.146128036,-0.368406455,2.62,-12.55817012,NA,68,17,19,0.94,male
13,2,3,2000,20,2,1,2,1098,5.583333333,6.137931034,Socks,Clothing,VESTUÁRIO,aTRUE,-0.5,0.5,healthy,-0.5,Old,5.583333333,0.190731059,1.821419532,6.14,0.63057183000000006,2.859738566,-1.474900582,1.5,0.628249917,6.085,68,17,19,0.94,male
13,2,3,3000,21,1,1,1,919,6.208333333,5.517241379,Lettuce,Vegetable,VESTUÁRIO,FALSE,0.5,0.5,healthy,-0.5,Old,6.208333333,0.652430949,1.285435103,5.52,-0.142806905,2.086359831,-0.279491748,2.71,-0.037030437,5.778,68,17,19,0.94,male
13,2,2,2500,22,2,1,2,887,6.833333333,5,Grape,Fruit,FRUTO,aTRUE,-0.5,0.5,healthy,-0.5,Old,6.833333333,1.11413084,0.835899775,5,0.049586865,2.278753601,-1.079724108,1.9,-12.55817012,NA,68,17,19,0.94,male
13,2,1,2500,23,1,1,1,988,5.875,4.275862069,Cucumber,Vegetable,MAMÍFERO,FALSE,0.5,0.5,healthy,-0.5,Old,5.875,0.406191008,0.213466245,4.28,-0.08928765,2.139879086,0.333031786,3.33,-0.325246356,5.645,68,17,19,0.94,male
13,2,1,1500,24,1,1,1,1385,6.458333333,4.103448276,Sword,Weapon,MAMÍFERO,FALSE,0.5,0.5,healthy,-0.5,Old,6.458333333,0.837110906,0.057857862,4.1,0.73838124,2.967547976,-0.170818218,2.82,0.810281023,6.169,68,17,19,0.94,male
13,2,3,3000,25,2,1,2,1415,4.75,6.103448276,Shoe,Clothing,VESTUÁRIO,aTRUE,-0.5,0.5,healthy,-0.5,Old,4.75,-0.424868795,1.786839892,6.1,0.536501819,2.765668555,-1.336588816,1.64,-0.045698585,5.774,68,17,19,0.94,male
13,2,4,3000,26,1,1,1,1200,6.166666667,3.034482759,Raven,Birds,VEÍCULO,FALSE,0.5,0.5,healthy,-0.5,Old,6.166666667,0.621650957,-0.867147524,3.03,-0.079947624,2.149219113,0.431825905,3.43,-0.026195252,5.783,68,17,19,0.94,male
13,2,1,2500,28,2,1,2,747,5.958333333,4.689655172,Rabbit,Mammals,MAMÍFERO,aTRUE,-0.5,0.5,healthy,-0.5,Old,5.958333333,0.467750993,0.567907561,4.69,0.504030529,2.733197265,-1.277312345,1.7,-0.463936723,5.581,68,17,19,0.94,male
13,2,2,2500,30,2,1,2,982,6.375,4.482758621,Kiwi,Fruit,FRUTO,aTRUE,-0.5,0.5,healthy,-0.5,Old,6.375,0.77555092,0.386364448,4.48,-0.724016758,1.505149978,0.738087672,3.74,-0.10637562,5.746,68,17,19,0.94,male
13,2,4,3000,31,2,1,2,933,5.458333333,4.931034483,Bicycle,Vehicles,VEÍCULO,aTRUE,-0.5,0.5,healthy,-0.5,Old,5.458333333,0.098391081,0.775385404,4.93,0.722656299,2.951823035,-1.069844696,1.91,0.727933618,6.131,68,17,19,0.94,male
13,2,1,1500,33,1,1,1,1527,5.333333333,5.103448276,Tomato,Vegetable,MAMÍFERO,FALSE,0.5,0.5,healthy,-0.5,Old,5.333333333,0.006051103,0.922348877,5.1,0.364119331,2.593286067,-0.684547634,2.3,-0.463936723,5.581,68,17,19,0.94,male
13,2,2,2000,34,2,1,2,2046,6.333333333,3.586206897,Medlar,Fruit,FRUTO,aTRUE,-0.5,0.5,healthy,-0.5,Old,6.333333333,0.744770927,-0.383032555,3.59,-2.229166736,0,-2.956812359,NA,-12.55817012,NA,68,17,19,0.94,male
13,2,4,3000,35,1,1,1,1274,5.416666667,3.068965517,Beetroot,Vegetable,VEÍCULO,FALSE,0.5,0.5,healthy,-0.5,Old,5.416666667,0.067611089,-0.832567883,3.07,-0.595698281,1.633468456,1.488922973,4.5,-1.339419664,5.177,68,17,19,0.94,male
13,2,4,2500,36,1,1,1,1257,5.041666667,2.75862069,Stick,Weapon,VEÍCULO,FALSE,0.5,0.5,healthy,-0.5,Old,5.041666667,-0.209408846,-1.100560098,2.76,0.185806612,2.414973348,2.150843566,5.17,-2.930024809,4.443,68,17,19,0.94,male
13,2,1,1500,37,2,1,2,950,4.916666667,3.275862069,Seal,Mammals,MAMÍFERO,aTRUE,-0.5,0.5,healthy,-0.5,Old,4.916666667,-0.301748824,-0.65102477,3.28,-0.118577026,2.11058971,-0.635150575,2.35,-0.570121535,5.532,68,17,19,0.94,male
13,2,3,2000,38,2,1,2,1279,3.916666667,4.034482759,Cap,Clothing,VESTUÁRIO,aTRUE,-0.5,0.5,healthy,-0.5,Old,3.916666667,-1.040468649,-0.002656509,4.03,0.151044506,2.380211242,-0.93153293,2.05,0.920799909,6.22,68,17,19,0.94,male
13,2,1,2000,39,2,1,2,1470,6.166666667,4,Dolphin,Mammals,MAMÍFERO,aTRUE,-0.5,0.5,healthy,-0.5,Old,6.166666667,0.621650957,-0.028591239,4,-0.246895503,1.982271233,-0.210335865,2.78,1.274026938,6.383,68,17,19,0.94,male
13,2,1,2500,40,1,1,1,1095,5.041666667,3.034482759,Tank,Weapon,MAMÍFERO,FALSE,0.5,0.5,healthy,-0.5,Old,5.041666667,-0.209408846,-0.867147524,3.03,0.622702865,2.851869601,-2.956812359,NA,-1.289577813,5.2,68,17,19,0.94,male
13,2,3,1500,41,2,1,2,1550,4.208333333,4.344827586,Tie,Clothing,VESTUÁRIO,aTRUE,-0.5,0.5,healthy,-0.5,Old,4.208333333,-0.8250087,0.265335706,4.34,0.540948559,2.770115295,0.392308258,3.39,-0.498609314,5.565,68,17,19,0.94,male
13,2,3,1500,42,1,1,1,1022,6.25,4.310344828,Pigeon,Birds,VESTUÁRIO,FALSE,0.5,0.5,healthy,-0.5,Old,6.25,0.683210942,0.239400975,4.31,-0.203860871,2.025305865,-0.793221164,2.19,0.480891402,6.017,68,17,19,0.94,male
13,2,2,1500,43,1,1,1,1724,4.875,3.137931034,Axe,Weapon,FRUTO,FALSE,0.5,0.5,healthy,-0.5,Old,4.875,-0.332528817,-0.772053512,3.14,0.319836526,2.549003262,0.194720021,3.19,-0.206059322,5.7,68,17,19,0.94,male
13,2,2,1500,44,2,1,2,1169,5.958333333,2.793103448,Grapefruit,Fruit,FRUTO,aTRUE,-0.5,0.5,healthy,-0.5,Old,5.958333333,0.467750993,-1.074625367,2.79,-0.616382879,1.612783857,1.2616965,4.27,-1.72298521,5,68,17,19,0.94,male
13,2,3,2500,45,1,1,1,987,5,4,Pumpkin,Vegetable,VESTUÁRIO,FALSE,0.5,0.5,healthy,-0.5,Old,5,-0.240188839,-0.028591239,4,0.016345932,2.245512668,0.698570025,3.7,-0.097707473,5.75,68,17,19,0.94,male
13,2,3,1500,46,1,1,1,1104,4.166666667,2.620689655,Tear gass,Weapon,VESTUÁRIO,FALSE,0.5,0.5,healthy,-0.5,Old,4.166666667,-0.855788692,-1.22158884,2.62,-2.229166736,NA,-2.956812359,NA,-12.55817012,NA,68,17,19,0.94,male
13,2,4,2000,47,2,1,2,1976,2.75,3.379310345,Canoe,Vehicles,VEÍCULO,aTRUE,-0.5,0.5,healthy,-0.5,Old,2.75,-1.902308444,-0.564575668,3.38,-0.146381366,2.08278537,0.708449437,3.71,0.149334744,5.864,68,17,19,0.94,male
13,2,4,2500,48,1,1,1,1105,5.375,2.517241379,Flamingo,Birds,VEÍCULO,FALSE,0.5,0.5,healthy,-0.5,Old,5.375,0.036831096,-1.308037941,2.52,-0.660965012,1.568201724,1.37037003,4.38,-0.385923391,5.617,68,17,19,0.94,male
13,2,2,3000,49,2,1,2,949,4.75,2.896551724,Avocado,Fruit,FRUTO,aTRUE,-0.5,0.5,healthy,-0.5,Old,4.75,-0.424868795,-0.979531356,2.9,-0.575954222,1.653212514,1.982893565,5,-0.849669306,5.403,68,17,19,0.94,male
